city_left;city_right;response;rt;semester;student;age;id;sex;group;trial
Durban;Ibadan;Durban;10.7616;6;y;25;14;m;1;1
Ankara;London;London;3.2745;6;y;25;14;m;1;2
Tokio;Tianjin;Tokio;1.0850;6;y;25;14;m;1;3
Montreal;Santiago;Santiago;20.8609;6;y;25;14;m;1;4
Chongqing;Tokio;Tokio;10.9873;6;y;25;14;m;1;5
Ibadan;Tokio;Tokio;1.2800;6;y;25;14;m;1;6
Shanghai;Tianjin;Shanghai;1.8839;6;y;25;14;m;1;7
Kano;Busan;Busan;8.7602;6;y;25;14;m;1;8
Rangun;Bangkok;Bangkok;11.4028;6;y;25;14;m;1;9
Wuhan;Seoul;Seoul;5.9480;6;y;25;14;m;1;10
Bangkok;Durban;Durban;2.8317;6;y;25;14;m;1;11
Chongqing;Wuhan;Chongqing;3.0007;6;y;25;14;m;1;12
Harbin;Tianjin;Tianjin;3.3041;6;y;25;14;m;1;13
Durban;Seoul;Seoul;28.5449;6;y;25;14;m;1;14
Wuhan;Montreal;Montreal;8.1490;6;y;25;14;m;1;15
Kano;Chongqing;Chongqing;1.7534;6;y;25;14;m;1;16
Ibadan;Tianjin;Tianjin;3.0997;6;y;25;14;m;1;17
London;Shanghai;Shanghai;1.5255;6;y;25;14;m;1;18
London;Ibadan;London;2.0608;6;y;25;14;m;1;19
Tianjin;Seoul;Seoul;6.2547;6;y;25;14;m;1;20
Durban;Rangun;Durban;3.2582;6;y;25;14;m;1;21
Busan;Ibadan;Busan;7.2423;6;y;25;14;m;1;22
Bangkok;Ankara;Bangkok;1.1227;6;y;25;14;m;1;23
Ibadan;Bangkok;Bangkok;5.2529;6;y;25;14;m;1;24
Seoul;Busan;Seoul;3.2520;6;y;25;14;m;1;25
Bangkok;Kano;Bangkok;1.9354;6;y;25;14;m;1;26
Seoul;Ibadan;Seoul;3.6443;6;y;25;14;m;1;27
Kano;Santiago;Santiago;1.5165;6;y;25;14;m;1;28
London;Harbin;London;1.1256;6;y;25;14;m;1;29
Seoul;Santiago;Seoul;1.6825;6;y;25;14;m;1;30
Rangun;Shanghai;Shanghai;1.3998;6;y;25;14;m;1;31
Seoul;London;London;32.0970;6;y;25;14;m;1;32
Harbin;Tokio;Tokio;1.1388;6;y;25;14;m;1;33
Chongqing;Bangkok;Chongqing;3.9924;6;y;25;14;m;1;34
Shanghai;Wuhan;Shanghai;13.2253;6;y;25;14;m;1;35
Ibadan;Kano;Ibadan;1.9404;6;y;25;14;m;1;36
Santiago;Tokio;Tokio;1.5835;6;y;25;14;m;1;37
Shanghai;Ankara;Shanghai;1.4236;6;y;25;14;m;1;38
Shanghai;Montreal;Shanghai;1.2523;6;y;25;14;m;1;39
Bangkok;Tianjin;Bangkok;2.7374;6;y;25;14;m;1;40
Tokio;Kano;Tokio;1.0312;6;y;25;14;m;1;41
Tokio;Montreal;Tokio;0.5670;6;y;25;14;m;1;42
Tianjin;Santiago;Tianjin;1.5782;6;y;25;14;m;1;43
Bangkok;Seoul;Seoul;2.5148;6;y;25;14;m;1;44
Bangkok;London;London;1.0384;6;y;25;14;m;1;45
Wuhan;Tianjin;Tianjin;2.9371;6;y;25;14;m;1;46
Chongqing;Harbin;Chongqing;3.1492;6;y;25;14;m;1;47
Tianjin;Durban;Durban;1.1195;6;y;25;14;m;1;48
Rangun;Tokio;Tokio;3.2858;6;y;25;14;m;1;49
London;Rangun;London;1.6491;6;y;25;14;m;1;50
Tianjin;London;London;2.4541;6;y;25;14;m;1;51
Wuhan;Durban;Durban;2.2175;6;y;25;14;m;1;52
London;Santiago;London;1.5991;6;y;25;14;m;1;53
Durban;Busan;Durban;4.2375;6;y;25;14;m;1;54
Ankara;Montreal;Ankara;8.2929;6;y;25;14;m;1;55
London;Tokio;Tokio;1.1700;6;y;25;14;m;1;56
Chongqing;Shanghai;Shanghai;1.4920;6;y;25;14;m;1;57
Busan;Bangkok;Bangkok;3.2674;6;y;25;14;m;1;58
Durban;Chongqing;Durban;3.5072;6;y;25;14;m;1;59
Busan;Ankara;Busan;2.0238;6;y;25;14;m;1;60
Montreal;Busan;Busan;1.7120;6;y;25;14;m;1;61
Tianjin;Chongqing;Chongqing;2.3838;6;y;25;14;m;1;62
Kano;Seoul;Seoul;1.4448;6;y;25;14;m;1;63
Wuhan;Rangun;Rangun;4.6629;6;y;25;14;m;1;64
Montreal;Rangun;Rangun;1.1244;6;y;25;14;m;1;65
Santiago;Shanghai;Shanghai;1.1821;6;y;25;14;m;1;66
Kano;Montreal;Kano;1.6406;6;y;25;14;m;1;67
Rangun;Ankara;Rangun;2.2236;6;y;25;14;m;1;68
Rangun;Harbin;Rangun;2.0698;6;y;25;14;m;1;69
Bangkok;Montreal;Bangkok;1.1148;6;y;25;14;m;1;70
Tianjin;Rangun;Tianjin;2.0069;6;y;25;14;m;1;71
Busan;Tianjin;Tianjin;0.9412;6;y;25;14;m;1;72
Chongqing;Ankara;Chongqing;0.9788;6;y;25;14;m;1;73
Seoul;Rangun;Seoul;1.0321;6;y;25;14;m;1;74
Santiago;Rangun;Rangun;10.7971;6;y;25;14;m;1;75
Santiago;Bangkok;Bangkok;1.3831;6;y;25;14;m;1;76
Tokio;Bangkok;Tokio;0.7957;6;y;25;14;m;1;77
Santiago;Harbin;Santiago;1.5595;6;y;25;14;m;1;78
Wuhan;London;London;0.9233;6;y;25;14;m;1;79
Busan;Tokio;Tokio;1.7826;6;y;25;14;m;1;80
Montreal;Ibadan;Ibadan;1.9293;6;y;25;14;m;1;81
Kano;Durban;Durban;1.0965;6;y;25;14;m;1;82
Santiago;Busan;Santiago;1.5506;6;y;25;14;m;1;83
Harbin;Durban;Durban;0.7690;6;y;25;14;m;1;84
Rangun;Ibadan;Ibadan;3.9651;6;y;25;14;m;1;85
Montreal;Harbin;Harbin;2.4392;6;y;25;14;m;1;86
Harbin;Wuhan;Wuhan;3.4481;6;y;25;14;m;1;87
Durban;Santiago;Durban;1.8535;6;y;25;14;m;1;88
Ankara;Durban;Durban;1.0306;6;y;25;14;m;1;89
Durban;London;London;0.9244;6;y;25;14;m;1;90
Montreal;London;London;1.9896;6;y;25;14;m;1;91
Santiago;Ibadan;Ibadan;1.9440;6;y;25;14;m;1;92
Tokio;Durban;Tokio;0.7516;6;y;25;14;m;1;93
Montreal;Seoul;Seoul;0.7843;6;y;25;14;m;1;94
Busan;Wuhan;Busan;2.6831;6;y;25;14;m;1;95
Shanghai;Durban;Shanghai;2.1729;6;y;25;14;m;1;96
Ankara;Tianjin;Tianjin;2.9117;6;y;25;14;m;1;97
Santiago;Chongqing;Chongqing;5.1604;6;y;25;14;m;1;98
Tokio;Ankara;Tokio;2.0378;6;y;25;14;m;1;99
Rangun;Chongqing;Chongqing;1.2250;6;y;25;14;m;1;100
Ankara;Santiago;Santiago;1.5950;6;y;25;14;m;1;101
Shanghai;Tokio;Tokio;1.1459;6;y;25;14;m;1;102
London;Busan;London;2.4633;6;y;25;14;m;1;103
Shanghai;Kano;Shanghai;0.9279;6;y;25;14;m;1;104
Montreal;Chongqing;Chongqing;1.2208;6;y;25;14;m;1;105
Harbin;Ankara;Harbin;2.3977;6;y;25;14;m;1;106
Ankara;Kano;Ankara;2.2056;6;y;25;14;m;1;107
Rangun;Busan;Busan;1.4397;6;y;25;14;m;1;108
Busan;Harbin;Busan;0.8102;6;y;25;14;m;1;109
Ankara;Seoul;Seoul;1.1448;6;y;25;14;m;1;110
Bangkok;Wuhan;Bangkok;1.7510;6;y;25;14;m;1;111
Chongqing;Ibadan;Chongqing;2.3094;6;y;25;14;m;1;112
Harbin;Shanghai;Shanghai;1.4200;6;y;25;14;m;1;113
London;Chongqing;London;1.3056;6;y;25;14;m;1;114
Seoul;Chongqing;Seoul;1.4327;6;y;25;14;m;1;115
Tokio;Wuhan;Tokio;1.0154;6;y;25;14;m;1;116
Tianjin;Kano;Tianjin;3.0949;6;y;25;14;m;1;117
Wuhan;Kano;Wuhan;1.4726;6;y;25;14;m;1;118
Kano;London;London;0.7972;6;y;25;14;m;1;119
Seoul;Shanghai;Shanghai;1.1841;6;y;25;14;m;1;120
Harbin;Kano;Harbin;3.4193;6;y;25;14;m;1;121
Ibadan;Ankara;Ibadan;1.0934;6;y;25;14;m;1;122
Tianjin;Montreal;Tianjin;1.4469;6;y;25;14;m;1;123
Kano;Rangun;Kano;6.5022;6;y;25;14;m;1;124
Busan;Shanghai;Shanghai;1.2048;6;y;25;14;m;1;125
Ankara;Wuhan;Wuhan;1.1223;6;y;25;14;m;1;126
Ibadan;Shanghai;Shanghai;3.0281;6;y;25;14;m;1;127
Ibadan;Harbin;Ibadan;2.0543;6;y;25;14;m;1;128
Durban;Montreal;Durban;1.4417;6;y;25;14;m;1;129
Harbin;Bangkok;Bangkok;2.5657;6;y;25;14;m;1;130
Seoul;Harbin;Seoul;1.1107;6;y;25;14;m;1;131
Tokio;Seoul;Tokio;1.1891;6;y;25;14;m;1;132
Ibadan;Wuhan;Ibadan;0.9158;6;y;25;14;m;1;133
Wuhan;Santiago;Santiago;8.7341;6;y;25;14;m;1;134
Chongqing;Busan;Chongqing;0.9737;6;y;25;14;m;1;135
Shanghai;Bangkok;Shanghai;0.7707;6;y;25;14;m;1;136
Kano;Bangkok;Bangkok;2.8168;NA;n;23;36;f;1;1
Seoul;Wuhan;Seoul;4.3203;NA;n;23;36;f;1;2
Rangun;Wuhan;Rangun;6.3620;NA;n;23;36;f;1;3
Wuhan;Bangkok;Bangkok;3.0460;NA;n;23;36;f;1;4
Ankara;Harbin;Ankara;2.7287;NA;n;23;36;f;1;5
Bangkok;Rangun;Rangun;2.2074;NA;n;23;36;f;1;6
Ibadan;Rangun;Rangun;2.6739;NA;n;23;36;f;1;7
Montreal;Durban;Montreal;3.3192;NA;n;23;36;f;1;8
London;Montreal;London;2.6460;NA;n;23;36;f;1;9
Ankara;Chongqing;Ankara;3.4095;NA;n;23;36;f;1;10
Montreal;Tianjin;Tianjin;3.1646;NA;n;23;36;f;1;11
Shanghai;Rangun;Shanghai;2.0941;NA;n;23;36;f;1;12
Santiago;Durban;Durban;2.8471;NA;n;23;36;f;1;13
London;Durban;London;2.1386;NA;n;23;36;f;1;14
Ankara;Rangun;Ankara;2.0072;NA;n;23;36;f;1;15
Shanghai;Busan;Shanghai;1.5683;NA;n;23;36;f;1;16
Tokio;Shanghai;Shanghai;5.2542;NA;n;23;36;f;1;17
London;Seoul;London;1.3033;NA;n;23;36;f;1;18
Kano;Harbin;Harbin;3.8135;NA;n;23;36;f;1;19
Bangkok;Tokio;Tokio;1.7372;NA;n;23;36;f;1;20
Tokio;Harbin;Tokio;1.2485;NA;n;23;36;f;1;21
Kano;Ankara;Ankara;2.5486;NA;n;23;36;f;1;22
Rangun;Montreal;Rangun;2.4591;NA;n;23;36;f;1;23
Durban;Tianjin;Durban;4.6912;NA;n;23;36;f;1;24
Chongqing;Santiago;Santiago;4.1189;NA;n;23;36;f;1;25
Seoul;Montreal;Seoul;2.3321;NA;n;23;36;f;1;26
Harbin;Montreal;Montreal;1.8494;NA;n;23;36;f;1;27
Durban;Kano;Durban;3.7970;NA;n;23;36;f;1;28
Harbin;Rangun;Rangun;2.4069;NA;n;23;36;f;1;29
Chongqing;Durban;Durban;1.5293;NA;n;23;36;f;1;30
Rangun;Kano;Rangun;2.2061;NA;n;23;36;f;1;31
Tianjin;Ankara;Ankara;2.1947;NA;n;23;36;f;1;32
Tianjin;Wuhan;Wuhan;2.2417;NA;n;23;36;f;1;33
Shanghai;London;Shanghai;2.9426;NA;n;23;36;f;1;34
Tokio;Ibadan;Tokio;2.6442;NA;n;23;36;f;1;35
Rangun;London;Rangun;2.1979;NA;n;23;36;f;1;36
Ibadan;London;London;3.9136;NA;n;23;36;f;1;37
Shanghai;Harbin;Shanghai;1.7782;NA;n;23;36;f;1;38
Bangkok;Shanghai;Shanghai;8.6415;NA;n;23;36;f;1;39
London;Wuhan;London;1.5316;NA;n;23;36;f;1;40
Tianjin;Shanghai;Shanghai;1.7724;NA;n;23;36;f;1;41
Chongqing;Seoul;Seoul;3.4474;NA;n;23;36;f;1;42
Busan;Seoul;Seoul;1.4135;NA;n;23;36;f;1;43
Seoul;Tianjin;Seoul;2.2511;NA;n;23;36;f;1;44
Chongqing;Montreal;Chongqing;5.6294;NA;n;23;36;f;1;45
Ankara;Shanghai;Shanghai;1.5069;NA;n;23;36;f;1;46
Durban;Bangkok;Bangkok;1.8130;NA;n;23;36;f;1;47
Harbin;London;London;2.2603;NA;n;23;36;f;1;48
Durban;Ankara;Durban;1.7812;NA;n;23;36;f;1;49
Montreal;Wuhan;Montreal;1.5018;NA;n;23;36;f;1;50
Wuhan;Busan;Wuhan;2.5853;NA;n;23;36;f;1;51
Shanghai;Ibadan;Shanghai;1.2891;NA;n;23;36;f;1;52
Busan;Chongqing;Chongqing;2.1219;NA;n;23;36;f;1;53
Ankara;Ibadan;Ankara;2.4571;NA;n;23;36;f;1;54
Montreal;Shanghai;Shanghai;2.0710;NA;n;23;36;f;1;55
London;Tianjin;London;1.6601;NA;n;23;36;f;1;56
Seoul;Kano;Seoul;1.6942;NA;n;23;36;f;1;57
Montreal;Tokio;Tokio;1.5282;NA;n;23;36;f;1;58
Tokio;Chongqing;Tokio;1.1999;NA;n;23;36;f;1;59
Ibadan;Chongqing;Chongqing;5.0844;NA;n;23;36;f;1;60
Seoul;Durban;Durban;2.8255;NA;n;23;36;f;1;61
Rangun;Santiago;Santiago;3.2168;NA;n;23;36;f;1;62
Ibadan;Santiago;Santiago;1.8765;NA;n;23;36;f;1;63
Harbin;Busan;Harbin;1.7033;NA;n;23;36;f;1;64
Santiago;Kano;Santiago;1.4917;NA;n;23;36;f;1;65
Kano;Wuhan;Kano;1.8931;NA;n;23;36;f;1;66
Tokio;London;Tokio;1.7299;NA;n;23;36;f;1;67
Busan;London;London;1.2569;NA;n;23;36;f;1;68
Seoul;Bangkok;Bangkok;2.2512;NA;n;23;36;f;1;69
Shanghai;Chongqing;Shanghai;1.6059;NA;n;23;36;f;1;70
Chongqing;Kano;Chongqing;1.8649;NA;n;23;36;f;1;71
Santiago;Seoul;Santiago;1.5067;NA;n;23;36;f;1;72
London;Kano;London;1.1539;NA;n;23;36;f;1;73
Durban;Shanghai;Shanghai;2.7844;NA;n;23;36;f;1;74
Durban;Wuhan;Durban;1.9156;NA;n;23;36;f;1;75
Santiago;Wuhan;Santiago;1.9618;NA;n;23;36;f;1;76
Tokio;Busan;Tokio;0.8841;NA;n;23;36;f;1;77
Ibadan;Busan;Busan;1.7856;NA;n;23;36;f;1;78
Harbin;Chongqing;Harbin;1.3858;NA;n;23;36;f;1;79
Tianjin;Harbin;Harbin;1.4896;NA;n;23;36;f;1;80
Harbin;Ibadan;Harbin;1.1274;NA;n;23;36;f;1;81
Seoul;Ankara;Ankara;2.6276;NA;n;23;36;f;1;82
Ibadan;Durban;Durban;1.4019;NA;n;23;36;f;1;83
Shanghai;Santiago;Shanghai;1.7499;NA;n;23;36;f;1;84
Tokio;Rangun;Tokio;1.0125;NA;n;23;36;f;1;85
Bangkok;Busan;Bangkok;0.8824;NA;n;23;36;f;1;86
Chongqing;Rangun;Rangun;1.4965;NA;n;23;36;f;1;87
Santiago;Montreal;Santiago;1.9508;NA;n;23;36;f;1;88
Tokio;Santiago;Tokio;1.4105;NA;n;23;36;f;1;89
Harbin;Santiago;Santiago;1.4243;NA;n;23;36;f;1;90
Durban;Harbin;Durban;1.2443;NA;n;23;36;f;1;91
Tianjin;Ibadan;Tianjin;1.6295;NA;n;23;36;f;1;92
Harbin;Seoul;Harbin;0.7803;NA;n;23;36;f;1;93
Ankara;Bangkok;Bangkok;1.1992;NA;n;23;36;f;1;94
Santiago;London;London;0.9484;NA;n;23;36;f;1;95
Montreal;Kano;Montreal;1.3783;NA;n;23;36;f;1;96
Wuhan;Chongqing;Chongqing;1.1516;NA;n;23;36;f;1;97
Wuhan;Harbin;Harbin;1.2330;NA;n;23;36;f;1;98
Kano;Tokio;Tokio;1.0288;NA;n;23;36;f;1;99
Durban;Tokio;Tokio;0.9978;NA;n;23;36;f;1;100
Wuhan;Ankara;Ankara;1.1381;NA;n;23;36;f;1;101
Rangun;Tianjin;Rangun;1.0923;NA;n;23;36;f;1;102
Rangun;Durban;Rangun;1.7312;NA;n;23;36;f;1;103
Busan;Montreal;Montreal;1.2391;NA;n;23;36;f;1;104
Shanghai;Seoul;Shanghai;1.3433;NA;n;23;36;f;1;105
Wuhan;Tokio;Tokio;1.0048;NA;n;23;36;f;1;106
Kano;Ibadan;Ibadan;1.4602;NA;n;23;36;f;1;107
Seoul;Tokio;Tokio;0.9313;NA;n;23;36;f;1;108
Wuhan;Shanghai;Shanghai;1.0442;NA;n;23;36;f;1;109
Ibadan;Montreal;Ibadan;1.5996;NA;n;23;36;f;1;110
Bangkok;Harbin;Bangkok;1.9589;NA;n;23;36;f;1;111
Kano;Shanghai;Shanghai;1.4313;NA;n;23;36;f;1;112
Santiago;Tianjin;Santiago;1.5016;NA;n;23;36;f;1;113
Ibadan;Seoul;Seoul;1.0227;NA;n;23;36;f;1;114
Montreal;Ankara;Montreal;1.3889;NA;n;23;36;f;1;115
Ankara;Tokio;Tokio;1.0377;NA;n;23;36;f;1;116
Chongqing;Tianjin;Chongqing;1.6927;NA;n;23;36;f;1;117
Busan;Rangun;Rangun;1.5112;NA;n;23;36;f;1;118
Ankara;Busan;Busan;1.9258;NA;n;23;36;f;1;119
Bangkok;Ibadan;Bangkok;1.2806;NA;n;23;36;f;1;120
Busan;Santiago;Santiago;1.3339;NA;n;23;36;f;1;121
Tianjin;Busan;Busan;0.9776;NA;n;23;36;f;1;122
Tianjin;Bangkok;Bangkok;1.2030;NA;n;23;36;f;1;123
Chongqing;London;London;1.0895;NA;n;23;36;f;1;124
Busan;Durban;Busan;1.1668;NA;n;23;36;f;1;125
Santiago;Ankara;Santiago;1.2166;NA;n;23;36;f;1;126
Bangkok;Chongqing;Bangkok;1.0510;NA;n;23;36;f;1;127
Tianjin;Tokio;Tokio;1.0231;NA;n;23;36;f;1;128
Wuhan;Ibadan;Ibadan;1.1222;NA;n;23;36;f;1;129
London;Bangkok;Bangkok;1.5143;NA;n;23;36;f;1;130
London;Ankara;London;1.7547;NA;n;23;36;f;1;131
Kano;Tianjin;Kano;1.1916;NA;n;23;36;f;1;132
Bangkok;Santiago;Bangkok;0.9846;NA;n;23;36;f;1;133
Montreal;Bangkok;Bangkok;1.5325;NA;n;23;36;f;1;134
Rangun;Seoul;Rangun;1.6386;NA;n;23;36;f;1;135
Busan;Kano;Busan;1.2307;NA;n;23;36;f;1;136
Chongqing;London;London;1.7900;4;y;21;28;m;1;1
Wuhan;Shanghai;Shanghai;1.3625;4;y;21;28;m;1;2
Montreal;Tokio;Tokio;0.9921;4;y;21;28;m;1;3
Harbin;Chongqing;Harbin;1.0703;4;y;21;28;m;1;4
Tokio;London;Tokio;1.3728;4;y;21;28;m;1;5
Kano;Wuhan;Wuhan;0.9580;4;y;21;28;m;1;6
Kano;Shanghai;Shanghai;1.0493;4;y;21;28;m;1;7
Shanghai;Busan;Shanghai;0.9538;4;y;21;28;m;1;8
Rangun;Tianjin;Rangun;1.2509;4;y;21;28;m;1;9
Seoul;Bangkok;Bangkok;0.9960;4;y;21;28;m;1;10
Ibadan;Chongqing;Ibadan;1.0374;4;y;21;28;m;1;11
London;Bangkok;London;0.8116;4;y;21;28;m;1;12
Tokio;Harbin;Tokio;1.1657;4;y;21;28;m;1;13
London;Seoul;London;0.7910;4;y;21;28;m;1;14
Seoul;Montreal;Seoul;1.3834;4;y;21;28;m;1;15
London;Ankara;Ankara;3.0184;4;y;21;28;m;1;16
Durban;Tianjin;Durban;1.1807;4;y;21;28;m;1;17
Montreal;Wuhan;Montreal;1.2783;4;y;21;28;m;1;18
Ibadan;Seoul;Ibadan;1.2510;4;y;21;28;m;1;19
Chongqing;Santiago;Santiago;0.9396;4;y;21;28;m;1;20
Santiago;Durban;Santiago;1.1427;4;y;21;28;m;1;21
Tokio;Busan;Tokio;0.7088;4;y;21;28;m;1;22
Durban;Harbin;Durban;0.7290;4;y;21;28;m;1;23
Shanghai;Ibadan;Shanghai;0.6791;4;y;21;28;m;1;24
Ankara;Chongqing;Ankara;0.6386;4;y;21;28;m;1;25
London;Montreal;London;0.6475;4;y;21;28;m;1;26
Busan;Durban;Durban;0.7043;4;y;21;28;m;1;27
Rangun;Santiago;Santiago;0.7321;4;y;21;28;m;1;28
Durban;Wuhan;Durban;0.7222;4;y;21;28;m;1;29
Ibadan;Busan;Busan;0.8971;4;y;21;28;m;1;30
Tianjin;Ibadan;Ibadan;1.0157;4;y;21;28;m;1;31
Harbin;Montreal;Montreal;0.8921;4;y;21;28;m;1;32
Ibadan;Durban;Durban;1.2892;4;y;21;28;m;1;33
Bangkok;Santiago;Bangkok;0.6843;4;y;21;28;m;1;34
Tokio;Ibadan;Tokio;0.8302;4;y;21;28;m;1;35
London;Wuhan;London;0.5580;4;y;21;28;m;1;36
Rangun;London;London;0.6645;4;y;21;28;m;1;37
Santiago;London;Santiago;0.6407;4;y;21;28;m;1;38
Harbin;Santiago;Santiago;0.8298;4;y;21;28;m;1;39
Santiago;Wuhan;Santiago;0.4674;4;y;21;28;m;1;40
Harbin;London;Harbin;0.6045;4;y;21;28;m;1;41
Bangkok;Rangun;Rangun;0.9959;4;y;21;28;m;1;42
Rangun;Durban;Durban;0.5840;4;y;21;28;m;1;43
Durban;Shanghai;Shanghai;0.8097;4;y;21;28;m;1;44
Bangkok;Tokio;Tokio;0.7492;4;y;21;28;m;1;45
Harbin;Busan;Busan;0.7374;4;y;21;28;m;1;46
Chongqing;Montreal;Montreal;0.7801;4;y;21;28;m;1;47
Tokio;Rangun;Tokio;0.6359;4;y;21;28;m;1;48
Wuhan;Chongqing;Wuhan;0.8527;4;y;21;28;m;1;49
Tokio;Chongqing;Tokio;0.6383;4;y;21;28;m;1;50
Montreal;Ankara;Montreal;0.6645;4;y;21;28;m;1;51
Ankara;Tokio;Tokio;0.9963;4;y;21;28;m;1;52
Montreal;Durban;Montreal;1.0023;4;y;21;28;m;1;53
Shanghai;Santiago;Shanghai;0.6914;4;y;21;28;m;1;54
Bangkok;Busan;Bangkok;0.6628;4;y;21;28;m;1;55
Tianjin;Ankara;Ankara;0.9379;4;y;21;28;m;1;56
Tianjin;Busan;Tianjin;1.6676;4;y;21;28;m;1;57
Busan;Montreal;Busan;0.6529;4;y;21;28;m;1;58
Rangun;Wuhan;Rangun;0.9918;4;y;21;28;m;1;59
Montreal;Kano;Montreal;0.7652;4;y;21;28;m;1;60
Chongqing;Durban;Durban;0.6985;4;y;21;28;m;1;61
Bangkok;Ibadan;Bangkok;0.6335;4;y;21;28;m;1;62
Seoul;Wuhan;Seoul;0.6746;4;y;21;28;m;1;63
Shanghai;Harbin;Shanghai;0.5990;4;y;21;28;m;1;64
Busan;Santiago;Busan;0.6609;4;y;21;28;m;1;65
Chongqing;Rangun;Chongqing;1.2790;4;y;21;28;m;1;66
Tianjin;Harbin;Tianjin;1.1341;4;y;21;28;m;1;67
Ankara;Ibadan;Ankara;0.9070;4;y;21;28;m;1;68
Seoul;Ankara;Seoul;0.8102;4;y;21;28;m;1;69
Kano;Tokio;Kano;0.5763;4;y;21;28;m;1;70
Ankara;Rangun;Ankara;0.7692;4;y;21;28;m;1;71
Santiago;Ankara;Ankara;0.6918;4;y;21;28;m;1;72
Shanghai;London;London;0.6504;4;y;21;28;m;1;73
Kano;Bangkok;Bangkok;1.1056;4;y;21;28;m;1;74
Seoul;Tokio;Tokio;0.7475;4;y;21;28;m;1;75
Busan;Kano;Kano;1.4559;4;y;21;28;m;1;76
Chongqing;Seoul;Seoul;0.7211;4;y;21;28;m;1;77
Ankara;Bangkok;Ankara;0.6849;4;y;21;28;m;1;78
Durban;Tokio;Tokio;0.6436;4;y;21;28;m;1;79
Harbin;Seoul;Seoul;0.7068;4;y;21;28;m;1;80
Tianjin;Tokio;Tokio;0.5520;4;y;21;28;m;1;81
Wuhan;Busan;Wuhan;0.9003;4;y;21;28;m;1;82
Santiago;Seoul;Seoul;0.6618;4;y;21;28;m;1;83
London;Kano;London;0.8007;4;y;21;28;m;1;84
Busan;Rangun;Busan;0.6238;4;y;21;28;m;1;85
Bangkok;Shanghai;Bangkok;0.6781;4;y;21;28;m;1;86
Chongqing;Kano;Kano;0.6488;4;y;21;28;m;1;87
Seoul;Durban;Durban;0.7431;4;y;21;28;m;1;88
Wuhan;Bangkok;Bangkok;0.6348;4;y;21;28;m;1;89
Rangun;Montreal;Montreal;0.6566;4;y;21;28;m;1;90
Harbin;Ibadan;Ibadan;0.5930;4;y;21;28;m;1;91
Montreal;Tianjin;Montreal;0.6659;4;y;21;28;m;1;92
Wuhan;Ankara;Wuhan;0.5638;4;y;21;28;m;1;93
Wuhan;Tokio;Tokio;0.5391;4;y;21;28;m;1;94
Kano;Harbin;Harbin;0.6886;4;y;21;28;m;1;95
London;Tianjin;London;0.8148;4;y;21;28;m;1;96
Wuhan;Harbin;Wuhan;0.5004;4;y;21;28;m;1;97
Bangkok;Harbin;Bangkok;0.6858;4;y;21;28;m;1;98
Montreal;Shanghai;Montreal;0.6302;4;y;21;28;m;1;99
Shanghai;Chongqing;Shanghai;0.6039;4;y;21;28;m;1;100
Santiago;Montreal;Santiago;0.6399;4;y;21;28;m;1;101
Ibadan;Montreal;Montreal;0.6938;4;y;21;28;m;1;102
Harbin;Rangun;Rangun;0.7311;4;y;21;28;m;1;103
Tianjin;Wuhan;Wuhan;0.5211;4;y;21;28;m;1;104
Ankara;Shanghai;Ankara;0.6041;4;y;21;28;m;1;105
Rangun;Kano;Kano;0.9549;4;y;21;28;m;1;106
Ibadan;Rangun;Ibadan;0.6427;4;y;21;28;m;1;107
Tianjin;Bangkok;Bangkok;0.5747;4;y;21;28;m;1;108
Kano;Ankara;Ankara;1.7515;4;y;21;28;m;1;109
Tokio;Santiago;Santiago;0.6596;4;y;21;28;m;1;110
Bangkok;Chongqing;Bangkok;0.8090;4;y;21;28;m;1;111
Santiago;Kano;Santiago;0.7989;4;y;21;28;m;1;112
Ibadan;London;London;0.9858;4;y;21;28;m;1;113
Ankara;Busan;Ankara;0.9337;4;y;21;28;m;1;114
Santiago;Tianjin;Santiago;1.1532;4;y;21;28;m;1;115
Kano;Ibadan;Ibadan;0.7494;4;y;21;28;m;1;116
Tianjin;Shanghai;Shanghai;0.9081;4;y;21;28;m;1;117
Ibadan;Santiago;Santiago;1.0195;4;y;21;28;m;1;118
Durban;Bangkok;Bangkok;0.6916;4;y;21;28;m;1;119
Busan;Chongqing;Chongqing;0.9623;4;y;21;28;m;1;120
Busan;Seoul;Seoul;1.3280;4;y;21;28;m;1;121
London;Durban;London;0.6533;4;y;21;28;m;1;122
Durban;Ankara;Ankara;0.8472;4;y;21;28;m;1;123
Kano;Tianjin;Kano;0.8341;4;y;21;28;m;1;124
Busan;London;London;0.6962;4;y;21;28;m;1;125
Chongqing;Tianjin;Tianjin;0.7675;4;y;21;28;m;1;126
Durban;Kano;Durban;0.7812;4;y;21;28;m;1;127
Ankara;Harbin;Ankara;1.1377;4;y;21;28;m;1;128
Tokio;Shanghai;Tokio;0.6460;4;y;21;28;m;1;129
Shanghai;Seoul;Shanghai;0.7441;4;y;21;28;m;1;130
Montreal;Bangkok;Bangkok;1.3355;4;y;21;28;m;1;131
Seoul;Kano;Seoul;1.0682;4;y;21;28;m;1;132
Wuhan;Ibadan;Ibadan;1.1230;4;y;21;28;m;1;133
Seoul;Tianjin;Seoul;1.0095;4;y;21;28;m;1;134
Rangun;Seoul;Seoul;1.2368;4;y;21;28;m;1;135
Shanghai;Rangun;Shanghai;1.1348;4;y;21;28;m;1;136
Shanghai;Tianjin;Shanghai;11.4346;6;y;21;03;f;0;1
Tokio;Montreal;Tokio;0.6370;6;y;21;03;f;0;2
Chongqing;Busan;Chongqing;1.2846;6;y;21;03;f;0;3
London;Busan;Busan;0.4368;6;y;21;03;f;0;4
Busan;Harbin;Harbin;0.3100;6;y;21;03;f;0;5
Santiago;Busan;Santiago;0.2855;6;y;21;03;f;0;6
Ibadan;Ankara;Ibadan;0.3417;6;y;21;03;f;0;7
Tianjin;Rangun;Rangun;0.5171;6;y;21;03;f;0;8
Seoul;Ibadan;Seoul;0.4939;6;y;21;03;f;0;9
Durban;Santiago;Santiago;0.5337;6;y;21;03;f;0;10
London;Tokio;London;0.5658;6;y;21;03;f;0;11
Kano;Busan;Busan;0.2701;6;y;21;03;f;0;12
Chongqing;Ankara;Ankara;0.4857;6;y;21;03;f;0;13
Wuhan;London;Wuhan;0.3897;6;y;21;03;f;0;14
Ankara;Tianjin;Tianjin;0.7012;6;y;21;03;f;0;15
Kano;Rangun;Kano;0.4698;6;y;21;03;f;0;16
Kano;Seoul;Kano;0.4542;6;y;21;03;f;0;17
Wuhan;Rangun;Rangun;0.1187;6;y;21;03;f;0;18
Wuhan;Kano;Kano;0.6540;6;y;21;03;f;0;19
Durban;Busan;Busan;0.3499;6;y;21;03;f;0;20
Rangun;Tokio;Tokio;0.7737;6;y;21;03;f;0;21
Shanghai;Wuhan;Wuhan;0.2223;6;y;21;03;f;0;22
London;Shanghai;London;0.5251;6;y;21;03;f;0;23
Shanghai;Bangkok;Bangkok;0.3890;6;y;21;03;f;0;24
Wuhan;Montreal;Montreal;0.3256;6;y;21;03;f;0;25
Busan;Shanghai;Shanghai;0.3654;6;y;21;03;f;0;26
Seoul;Santiago;Santiago;0.2377;6;y;21;03;f;0;27
Rangun;Bangkok;Bangkok;0.2294;6;y;21;03;f;0;28
Shanghai;Ankara;Ankara;0.6211;6;y;21;03;f;0;29
Ibadan;Tokio;Ibadan;0.2938;6;y;21;03;f;0;30
London;Rangun;Rangun;0.5176;6;y;21;03;f;0;31
Rangun;Ankara;Ankara;0.1418;6;y;21;03;f;0;32
Kano;Durban;Kano;0.1750;6;y;21;03;f;0;33
Chongqing;Tokio;Tokio;0.2931;6;y;21;03;f;0;34
Seoul;London;Seoul;0.5133;6;y;21;03;f;0;35
London;Chongqing;London;0.4213;6;y;21;03;f;0;36
Wuhan;Tianjin;Tianjin;0.5498;6;y;21;03;f;0;37
Montreal;Busan;Montreal;0.2139;6;y;21;03;f;0;38
Tianjin;Durban;Durban;0.2200;6;y;21;03;f;0;39
Chongqing;Shanghai;Shanghai;0.5170;6;y;21;03;f;0;40
Ankara;Kano;Ankara;0.2699;6;y;21;03;f;0;41
Seoul;Busan;Seoul;0.1901;6;y;21;03;f;0;42
Chongqing;Ibadan;Ibadan;0.3415;6;y;21;03;f;0;43
Tokio;Kano;Kano;0.4223;6;y;21;03;f;0;44
Bangkok;Tianjin;Bangkok;0.0775;6;y;21;03;f;0;45
Chongqing;Bangkok;Bangkok;0.6056;6;y;21;03;f;0;46
Bangkok;Ankara;Bangkok;0.2615;6;y;21;03;f;0;47
Durban;Chongqing;Chongqing;0.2212;6;y;21;03;f;0;48
Ankara;Santiago;Santiago;0.2300;6;y;21;03;f;0;49
London;Harbin;London;0.1815;6;y;21;03;f;0;50
Harbin;Bangkok;Bangkok;0.2365;6;y;21;03;f;0;51
Montreal;Seoul;Montreal;0.1573;6;y;21;03;f;0;52
Bangkok;Wuhan;Bangkok;0.2139;6;y;21;03;f;0;53
Ibadan;Kano;Kano;0.1985;6;y;21;03;f;0;54
Montreal;Rangun;Rangun;0.3333;6;y;21;03;f;0;55
Tokio;Durban;Durban;0.1738;6;y;21;03;f;0;56
Shanghai;Tokio;Tokio;0.0938;6;y;21;03;f;0;57
Durban;Ibadan;Durban;0.1336;6;y;21;03;f;0;58
London;Ibadan;Ibadan;0.1893;6;y;21;03;f;0;59
Durban;Montreal;Montreal;0.1896;6;y;21;03;f;0;60
Santiago;Ibadan;Santiago;0.0775;6;y;21;03;f;0;61
Bangkok;Kano;Bangkok;0.3898;6;y;21;03;f;0;62
Santiago;Tokio;Santiago;0.1253;6;y;21;03;f;0;63
Busan;Tianjin;Busan;0.3657;6;y;21;03;f;0;64
Bangkok;London;London;0.0136;6;y;21;03;f;0;65
Durban;Rangun;Rangun;1.4936;6;y;21;03;f;0;66
Tokio;Bangkok;Tokio;0.0936;6;y;21;03;f;0;67
Rangun;Shanghai;Rangun;0.0137;6;y;21;03;f;0;68
Santiago;Shanghai;Shanghai;2.7769;6;y;21;03;f;0;69
Shanghai;Montreal;Montreal;0.1489;6;y;21;03;f;0;70
Ibadan;Harbin;Ibadan;0.0858;6;y;21;03;f;0;71
Harbin;Kano;Harbin;0.1420;6;y;21;03;f;0;72
Montreal;Chongqing;Montreal;0.1491;6;y;21;03;f;0;73
Seoul;Harbin;Harbin;0.3653;6;y;21;03;f;0;74
Tianjin;Montreal;Tianjin;0.1566;6;y;21;03;f;0;75
Tianjin;Chongqing;Tianjin;0.1173;6;y;21;03;f;0;76
London;Santiago;London;0.2534;6;y;21;03;f;0;77
Ankara;Wuhan;Wuhan;0.0213;6;y;21;03;f;0;78
Montreal;London;Montreal;0.3331;6;y;21;03;f;0;79
Harbin;Tianjin;Harbin;0.4936;6;y;21;03;f;0;80
Tokio;Tianjin;Tianjin;0.0770;6;y;21;03;f;0;81
Santiago;Bangkok;Bangkok;0.1893;6;y;21;03;f;0;82
Tianjin;Santiago;Santiago;0.1335;6;y;21;03;f;0;83
Rangun;Busan;Busan;0.1172;6;y;21;03;f;0;84
Durban;London;Durban;0.0676;6;y;21;03;f;0;85
Tokio;Ankara;Tokio;0.1017;6;y;21;03;f;0;86
Ibadan;Bangkok;Bangkok;0.2219;6;y;21;03;f;0;87
Harbin;Ankara;Harbin;0.1414;6;y;21;03;f;0;88
Busan;Ibadan;Ibadan;0.0769;6;y;21;03;f;0;89
Ankara;Durban;Durban;0.1649;6;y;21;03;f;0;90
Wuhan;Seoul;Wuhan;0.1417;6;y;21;03;f;0;91
Durban;Seoul;Seoul;0.1250;6;y;21;03;f;0;92
Tokio;Wuhan;Wuhan;0.1495;6;y;21;03;f;0;93
Busan;Wuhan;Wuhan;0.1342;6;y;21;03;f;0;94
Ankara;London;Ankara;0.0618;6;y;21;03;f;0;95
Rangun;Harbin;Rangun;0.0209;6;y;21;03;f;0;96
Harbin;Wuhan;Wuhan;0.3569;6;y;21;03;f;0;97
Ibadan;Shanghai;Shanghai;0.2535;6;y;21;03;f;0;98
Kano;Santiago;Santiago;0.3331;6;y;21;03;f;0;99
Kano;Montreal;Montreal;0.1336;6;y;21;03;f;0;100
Kano;Chongqing;Chongqing;0.0856;6;y;21;03;f;0;101
Tokio;Seoul;Tokio;0.0380;6;y;21;03;f;0;102
Shanghai;Durban;Durban;1.3128;6;y;21;03;f;0;103
Wuhan;Durban;Durban;0.1416;6;y;21;03;f;0;104
Ibadan;Tianjin;Ibadan;0.0613;6;y;21;03;f;0;105
Wuhan;Santiago;Santiago;0.1491;6;y;21;03;f;0;106
Ankara;Montreal;Montreal;0.5008;6;y;21;03;f;0;107
Montreal;Harbin;Montreal;0.1573;6;y;21;03;f;0;108
Chongqing;Wuhan;Chongqing;0.0296;6;y;21;03;f;0;109
Santiago;Chongqing;Chongqing;0.4285;6;y;21;03;f;0;110
Harbin;Durban;Durban;0.3822;6;y;21;03;f;0;111
Busan;Tokio;Busan;0.1172;6;y;21;03;f;0;112
Tianjin;London;London;0.5888;6;y;21;03;f;0;113
Bangkok;Durban;Bangkok;0.5567;6;y;21;03;f;0;114
Chongqing;Harbin;Chongqing;0.1884;6;y;21;03;f;0;115
Bangkok;Montreal;Montreal;0.1169;6;y;21;03;f;0;116
Shanghai;Kano;Shanghai;0.1742;6;y;21;03;f;0;117
Seoul;Rangun;Rangun;0.1252;6;y;21;03;f;0;118
Montreal;Ibadan;Ibadan;0.1330;6;y;21;03;f;0;119
Seoul;Chongqing;Seoul;0.0630;6;y;21;03;f;0;120
Santiago;Rangun;Rangun;0.3574;6;y;21;03;f;0;121
Seoul;Shanghai;Shanghai;0.1886;6;y;21;03;f;0;122
Harbin;Shanghai;Shanghai;0.1251;6;y;21;03;f;0;123
Busan;Ankara;Busan;0.0700;6;y;21;03;f;0;124
Montreal;Santiago;Santiago;0.2212;6;y;21;03;f;0;125
Ibadan;Wuhan;Ibadan;0.1266;6;y;21;03;f;0;126
Harbin;Tokio;Harbin;0.1658;6;y;21;03;f;0;127
Rangun;Ibadan;Rangun;0.1893;6;y;21;03;f;0;128
Bangkok;Seoul;Seoul;0.1968;6;y;21;03;f;0;129
Kano;London;Kano;0.1258;6;y;21;03;f;0;130
Tianjin;Kano;Kano;0.1407;6;y;21;03;f;0;131
Ankara;Seoul;Seoul;0.2132;6;y;21;03;f;0;132
Santiago;Harbin;Santiago;0.1173;6;y;21;03;f;0;133
Busan;Bangkok;Bangkok;0.1495;6;y;21;03;f;0;134
Tianjin;Seoul;Tianjin;0.2455;6;y;21;03;f;0;135
Rangun;Chongqing;Rangun;0.1329;6;y;21;03;f;0;136
Ankara;Santiago;Santiago;1.3741;2;y;19;01;f;0;1
Rangun;Harbin;Harbin;1.5308;2;y;19;01;f;0;2
Tokio;Wuhan;Tokio;0.9084;2;y;19;01;f;0;3
Durban;London;London;1.6355;2;y;19;01;f;0;4
Montreal;Harbin;Harbin;2.5969;2;y;19;01;f;0;5
Kano;Busan;Busan;1.2389;2;y;19;01;f;0;6
Tokio;Ankara;Tokio;1.0706;2;y;19;01;f;0;7
Busan;Bangkok;Bangkok;1.4417;2;y;19;01;f;0;8
Chongqing;Busan;Chongqing;1.1986;2;y;19;01;f;0;9
Rangun;Tokio;Tokio;0.8656;2;y;19;01;f;0;10
Chongqing;Ankara;Ankara;1.6579;2;y;19;01;f;0;11
London;Harbin;London;1.1697;2;y;19;01;f;0;12
Wuhan;Santiago;Santiago;2.1206;2;y;19;01;f;0;13
Durban;Rangun;Rangun;1.7923;2;y;19;01;f;0;14
Chongqing;Harbin;Chongqing;1.0781;2;y;19;01;f;0;15
Chongqing;Bangkok;Bangkok;1.1703;2;y;19;01;f;0;16
Shanghai;Tokio;Shanghai;1.3503;2;y;19;01;f;0;17
Ibadan;Bangkok;Bangkok;1.2395;2;y;19;01;f;0;18
Santiago;Chongqing;Santiago;1.4621;2;y;19;01;f;0;19
Montreal;Chongqing;Montreal;1.3029;2;y;19;01;f;0;20
Seoul;Busan;Seoul;0.9855;2;y;19;01;f;0;21
Santiago;Busan;Santiago;2.1449;2;y;19;01;f;0;22
Tokio;Durban;Tokio;1.2469;2;y;19;01;f;0;23
Ibadan;Shanghai;Shanghai;0.7655;2;y;19;01;f;0;24
Shanghai;Wuhan;Shanghai;1.1114;2;y;19;01;f;0;25
Tianjin;Santiago;Santiago;0.9598;2;y;19;01;f;0;26
Chongqing;Tokio;Tokio;0.7476;2;y;19;01;f;0;27
Santiago;Shanghai;Shanghai;1.0255;2;y;19;01;f;0;28
Seoul;London;Seoul;1.6984;2;y;19;01;f;0;29
Wuhan;Kano;Kano;1.6729;2;y;19;01;f;0;30
Busan;Ibadan;Busan;1.2506;2;y;19;01;f;0;31
Kano;Seoul;Seoul;1.6952;2;y;19;01;f;0;32
London;Ibadan;London;0.7395;2;y;19;01;f;0;33
London;Shanghai;Shanghai;1.0957;2;y;19;01;f;0;34
Durban;Chongqing;Chongqing;1.4303;2;y;19;01;f;0;35
Santiago;Bangkok;Santiago;0.7696;2;y;19;01;f;0;36
Santiago;Ibadan;Santiago;1.1931;2;y;19;01;f;0;37
Montreal;Rangun;Rangun;1.3396;2;y;19;01;f;0;38
Busan;Wuhan;Wuhan;2.2030;2;y;19;01;f;0;39
Chongqing;Shanghai;Shanghai;1.7431;2;y;19;01;f;0;40
Rangun;Busan;Rangun;1.5471;2;y;19;01;f;0;41
Kano;Santiago;Kano;1.1637;2;y;19;01;f;0;42
Durban;Santiago;Santiago;1.0093;2;y;19;01;f;0;43
Harbin;Tianjin;Harbin;1.3553;2;y;19;01;f;0;44
Ankara;Montreal;Ankara;1.4421;2;y;19;01;f;0;45
Wuhan;Montreal;Montreal;1.1376;2;y;19;01;f;0;46
Busan;Ankara;Ankara;1.4119;2;y;19;01;f;0;47
Busan;Tokio;Tokio;1.7435;2;y;19;01;f;0;48
Bangkok;Tianjin;Bangkok;1.0230;2;y;19;01;f;0;49
Wuhan;Seoul;Seoul;0.7521;2;y;19;01;f;0;50
Tokio;Bangkok;Bangkok;1.0089;2;y;19;01;f;0;51
Tianjin;Durban;Durban;2.0932;2;y;19;01;f;0;52
Tokio;Seoul;Seoul;1.8421;2;y;19;01;f;0;53
Bangkok;Seoul;Seoul;1.8235;2;y;19;01;f;0;54
Ibadan;Ankara;Ankara;1.5714;2;y;19;01;f;0;55
Seoul;Ibadan;Seoul;0.9492;2;y;19;01;f;0;56
Tianjin;Montreal;Tianjin;1.2305;2;y;19;01;f;0;57
Wuhan;Rangun;Wuhan;1.2683;2;y;19;01;f;0;58
Wuhan;Tianjin;Wuhan;1.0165;2;y;19;01;f;0;59
Shanghai;Kano;Shanghai;1.4628;2;y;19;01;f;0;60
Harbin;Ankara;Ankara;1.3168;2;y;19;01;f;0;61
Shanghai;Ankara;Shanghai;1.2104;2;y;19;01;f;0;62
Kano;London;London;0.9507;2;y;19;01;f;0;63
Tokio;Tianjin;Tokio;0.9568;2;y;19;01;f;0;64
Tokio;Montreal;Tokio;1.2210;2;y;19;01;f;0;65
Ankara;Kano;Ankara;1.1462;2;y;19;01;f;0;66
Shanghai;Tianjin;Shanghai;0.8352;2;y;19;01;f;0;67
Ankara;Wuhan;Ankara;1.3018;2;y;19;01;f;0;68
Harbin;Durban;Harbin;1.2337;2;y;19;01;f;0;69
London;Busan;London;0.8087;2;y;19;01;f;0;70
Seoul;Santiago;Seoul;0.8372;2;y;19;01;f;0;71
Seoul;Chongqing;Seoul;0.8032;2;y;19;01;f;0;72
Durban;Ibadan;Durban;1.5747;2;y;19;01;f;0;73
London;Santiago;London;1.6223;2;y;19;01;f;0;74
Wuhan;London;London;1.0718;2;y;19;01;f;0;75
Tianjin;Chongqing;Chongqing;1.1589;2;y;19;01;f;0;76
Seoul;Harbin;Seoul;0.9382;2;y;19;01;f;0;77
Wuhan;Durban;Durban;1.6662;2;y;19;01;f;0;78
Tianjin;London;London;1.0597;2;y;19;01;f;0;79
Shanghai;Durban;Shanghai;1.1040;2;y;19;01;f;0;80
Shanghai;Bangkok;Shanghai;1.7218;2;y;19;01;f;0;81
Tianjin;Rangun;Rangun;0.9141;2;y;19;01;f;0;82
Santiago;Harbin;Santiago;1.3316;2;y;19;01;f;0;83
Chongqing;Wuhan;Wuhan;2.8057;2;y;19;01;f;0;84
Bangkok;Ankara;Bangkok;1.8142;2;y;19;01;f;0;85
Kano;Montreal;Kano;1.8367;2;y;19;01;f;0;86
Bangkok;Wuhan;Bangkok;1.4732;2;y;19;01;f;0;87
Harbin;Wuhan;Wuhan;1.0003;2;y;19;01;f;0;88
Rangun;Chongqing;Chongqing;1.7925;2;y;19;01;f;0;89
Bangkok;London;London;2.3645;2;y;19;01;f;0;90
Ankara;Tianjin;Ankara;0.8827;2;y;19;01;f;0;91
Montreal;Ibadan;Montreal;2.0881;2;y;19;01;f;0;92
Montreal;Santiago;Santiago;2.9521;2;y;19;01;f;0;93
Santiago;Tokio;Tokio;1.0078;2;y;19;01;f;0;94
Rangun;Bangkok;Bangkok;1.0257;2;y;19;01;f;0;95
Busan;Shanghai;Shanghai;0.8902;2;y;19;01;f;0;96
Ibadan;Wuhan;Ibadan;1.9997;2;y;19;01;f;0;97
Bangkok;Montreal;Bangkok;2.7426;2;y;19;01;f;0;98
Tianjin;Kano;Kano;1.4883;2;y;19;01;f;0;99
Shanghai;Montreal;Shanghai;3.6947;2;y;19;01;f;0;100
Busan;Tianjin;Busan;0.7653;2;y;19;01;f;0;101
Chongqing;Ibadan;Chongqing;1.2017;2;y;19;01;f;0;102
Montreal;London;London;2.6397;2;y;19;01;f;0;103
Ibadan;Tianjin;Ibadan;0.8630;2;y;19;01;f;0;104
Tokio;Kano;Tokio;0.7842;2;y;19;01;f;0;105
Tianjin;Seoul;Seoul;0.9867;2;y;19;01;f;0;106
Durban;Montreal;Montreal;1.5238;2;y;19;01;f;0;107
Montreal;Seoul;Seoul;1.2817;2;y;19;01;f;0;108
Ibadan;Tokio;Tokio;0.7515;2;y;19;01;f;0;109
Durban;Seoul;Seoul;1.0809;2;y;19;01;f;0;110
Bangkok;Kano;Bangkok;0.7092;2;y;19;01;f;0;111
Rangun;Ibadan;Rangun;0.9626;2;y;19;01;f;0;112
Santiago;Rangun;Santiago;0.9529;2;y;19;01;f;0;113
Kano;Chongqing;Chongqing;1.0278;2;y;19;01;f;0;114
Seoul;Shanghai;Shanghai;1.4287;2;y;19;01;f;0;115
London;Rangun;London;0.7711;2;y;19;01;f;0;116
Rangun;Shanghai;Shanghai;0.6255;2;y;19;01;f;0;117
Busan;Harbin;Harbin;1.2624;2;y;19;01;f;0;118
Ibadan;Harbin;Harbin;0.8882;2;y;19;01;f;0;119
Durban;Busan;Durban;1.5927;2;y;19;01;f;0;120
Kano;Durban;Durban;1.1963;2;y;19;01;f;0;121
Harbin;Bangkok;Bangkok;1.0994;2;y;19;01;f;0;122
London;Tokio;Tokio;1.9477;2;y;19;01;f;0;123
Ankara;Durban;Ankara;1.2884;2;y;19;01;f;0;124
Harbin;Shanghai;Shanghai;0.9031;2;y;19;01;f;0;125
Kano;Rangun;Rangun;1.2254;2;y;19;01;f;0;126
Seoul;Rangun;Seoul;0.6157;2;y;19;01;f;0;127
Harbin;Tokio;Tokio;0.7751;2;y;19;01;f;0;128
Ankara;Seoul;Seoul;0.8289;2;y;19;01;f;0;129
Ankara;London;London;1.1107;2;y;19;01;f;0;130
Montreal;Busan;Montreal;1.6672;2;y;19;01;f;0;131
London;Chongqing;London;0.6747;2;y;19;01;f;0;132
Rangun;Ankara;Ankara;0.9585;2;y;19;01;f;0;133
Ibadan;Kano;Ibadan;1.8379;2;y;19;01;f;0;134
Bangkok;Durban;Bangkok;0.8201;2;y;19;01;f;0;135
Harbin;Kano;Kano;2.2800;2;y;19;01;f;0;136
Harbin;Chongqing;Harbin;28.9274;11;y;25;19;m;0;1
Shanghai;Harbin;Shanghai;5.6745;11;y;25;19;m;0;2
Rangun;Kano;Rangun;14.4402;11;y;25;19;m;0;3
Seoul;Tianjin;Seoul;4.4896;11;y;25;19;m;0;4
Santiago;Ankara;Ankara;7.3816;11;y;25;19;m;0;5
Shanghai;Chongqing;Shanghai;1.8518;11;y;25;19;m;0;6
Kano;Ibadan;Kano;4.7846;11;y;25;19;m;0;7
Bangkok;Ibadan;Bangkok;1.5015;11;y;25;19;m;0;8
London;Kano;London;1.5790;11;y;25;19;m;0;9
Kano;Ankara;Kano;1.4727;11;y;25;19;m;0;10
Shanghai;London;Shanghai;10.8244;11;y;25;19;m;0;11
Wuhan;Shanghai;Shanghai;6.2552;11;y;25;19;m;0;12
Harbin;Montreal;Harbin;3.0226;11;y;25;19;m;0;13
Ibadan;Durban;Ibadan;4.2289;11;y;25;19;m;0;14
Tokio;Rangun;Tokio;1.1532;11;y;25;19;m;0;15
Montreal;Wuhan;Wuhan;2.0117;11;y;25;19;m;0;16
Bangkok;Busan;Bangkok;1.2165;11;y;25;19;m;0;17
Durban;Ankara;Durban;1.9550;11;y;25;19;m;0;18
Seoul;Wuhan;Seoul;1.6019;11;y;25;19;m;0;19
Chongqing;Rangun;Chongqing;2.0117;11;y;25;19;m;0;20
Tokio;Harbin;Tokio;0.9641;11;y;25;19;m;0;21
Chongqing;Seoul;Seoul;3.3824;11;y;25;19;m;0;22
Chongqing;Kano;Chongqing;2.3956;11;y;25;19;m;0;23
Wuhan;Ibadan;Wuhan;2.0855;11;y;25;19;m;0;24
Shanghai;Ibadan;Shanghai;1.1518;11;y;25;19;m;0;25
Santiago;Kano;Kano;2.2442;11;y;25;19;m;0;26
Busan;Montreal;Busan;2.4117;11;y;25;19;m;0;27
Tokio;Busan;Tokio;0.9124;11;y;25;19;m;0;28
Bangkok;Shanghai;Shanghai;1.5412;11;y;25;19;m;0;29
Tianjin;Ankara;Tianjin;1.8342;11;y;25;19;m;0;30
Bangkok;Rangun;Bangkok;1.6445;11;y;25;19;m;0;31
Harbin;Busan;Harbin;1.4102;11;y;25;19;m;0;32
Harbin;Rangun;Harbin;1.8465;11;y;25;19;m;0;33
Seoul;Kano;Seoul;1.6760;11;y;25;19;m;0;34
Durban;Tianjin;Tianjin;7.9796;11;y;25;19;m;0;35
Tianjin;Harbin;Tianjin;2.8172;11;y;25;19;m;0;36
Montreal;Kano;Kano;1.9286;11;y;25;19;m;0;37
Santiago;Durban;Durban;1.9768;11;y;25;19;m;0;38
Tianjin;Shanghai;Shanghai;1.7951;11;y;25;19;m;0;39
Seoul;Ankara;Seoul;1.5851;11;y;25;19;m;0;40
Busan;Santiago;Santiago;3.7025;11;y;25;19;m;0;41
Wuhan;Busan;Wuhan;2.5292;11;y;25;19;m;0;42
Wuhan;Harbin;Harbin;1.9824;11;y;25;19;m;0;43
Ibadan;Santiago;Santiago;2.0479;11;y;25;19;m;0;44
Tokio;London;Tokio;0.9693;11;y;25;19;m;0;45
Durban;Wuhan;Wuhan;4.2040;11;y;25;19;m;0;46
Ibadan;Montreal;Montreal;3.1493;11;y;25;19;m;0;47
London;Ankara;London;0.9501;11;y;25;19;m;0;48
London;Wuhan;London;1.1666;11;y;25;19;m;0;49
Santiago;London;London;1.5523;11;y;25;19;m;0;50
Bangkok;Tokio;Tokio;1.6670;11;y;25;19;m;0;51
Bangkok;Chongqing;Bangkok;3.1291;11;y;25;19;m;0;52
Wuhan;Bangkok;Bangkok;1.4875;11;y;25;19;m;0;53
Harbin;Ibadan;Harbin;1.0900;11;y;25;19;m;0;54
Ibadan;Chongqing;Chongqing;1.1043;11;y;25;19;m;0;55
Durban;Bangkok;Bangkok;1.1213;11;y;25;19;m;0;56
Busan;London;London;0.9838;11;y;25;19;m;0;57
Tianjin;Ibadan;Tianjin;1.4169;11;y;25;19;m;0;58
Santiago;Montreal;Montreal;1.3260;11;y;25;19;m;0;59
Montreal;Bangkok;Bangkok;1.2590;11;y;25;19;m;0;60
Montreal;Durban;Durban;2.0671;11;y;25;19;m;0;61
Busan;Durban;Busan;2.7958;11;y;25;19;m;0;62
Rangun;Seoul;Seoul;1.3214;11;y;25;19;m;0;63
Durban;Harbin;Harbin;8.1977;11;y;25;19;m;0;64
Harbin;Santiago;Harbin;1.1443;11;y;25;19;m;0;65
Wuhan;Ankara;Wuhan;1.0616;11;y;25;19;m;0;66
Seoul;Durban;Seoul;1.0534;11;y;25;19;m;0;67
Seoul;Tokio;Tokio;1.1308;11;y;25;19;m;0;68
Bangkok;Santiago;Bangkok;1.5026;11;y;25;19;m;0;69
Harbin;Seoul;Seoul;1.0982;11;y;25;19;m;0;70
Tokio;Ibadan;Tokio;0.9775;11;y;25;19;m;0;71
Tokio;Santiago;Tokio;0.5661;11;y;25;19;m;0;72
Ibadan;Busan;Busan;1.4717;11;y;25;19;m;0;73
Chongqing;Tianjin;Tianjin;1.5935;11;y;25;19;m;0;74
Ankara;Chongqing;Chongqing;1.1231;11;y;25;19;m;0;75
Busan;Rangun;Busan;2.6482;11;y;25;19;m;0;76
Shanghai;Santiago;Shanghai;0.7827;11;y;25;19;m;0;77
London;Durban;London;0.9699;11;y;25;19;m;0;78
Rangun;London;London;1.1974;11;y;25;19;m;0;79
Rangun;Durban;Rangun;4.7521;11;y;25;19;m;0;80
Ankara;Rangun;Rangun;1.5378;11;y;25;19;m;0;81
Ankara;Harbin;Harbin;0.9732;11;y;25;19;m;0;82
Kano;Harbin;Harbin;1.5031;11;y;25;19;m;0;83
Ankara;Shanghai;Shanghai;0.8997;11;y;25;19;m;0;84
Durban;Kano;Kano;2.8116;11;y;25;19;m;0;85
Busan;Chongqing;Chongqing;1.6792;11;y;25;19;m;0;86
Shanghai;Rangun;Shanghai;0.7882;11;y;25;19;m;0;87
Busan;Kano;Busan;3.9355;11;y;25;19;m;0;88
Kano;Tianjin;Tianjin;1.1231;11;y;25;19;m;0;89
Ibadan;Seoul;Seoul;1.2834;11;y;25;19;m;0;90
Montreal;Tokio;Tokio;1.1172;11;y;25;19;m;0;91
Chongqing;Santiago;Chongqing;1.8314;11;y;25;19;m;0;92
Rangun;Tianjin;Tianjin;13.9785;11;y;25;19;m;0;93
Chongqing;Durban;Chongqing;1.0050;11;y;25;19;m;0;94
London;Bangkok;London;2.8983;11;y;25;19;m;0;95
Shanghai;Seoul;Shanghai;0.9347;11;y;25;19;m;0;96
Santiago;Tianjin;Tianjin;1.8316;11;y;25;19;m;0;97
Seoul;Bangkok;Seoul;1.7648;11;y;25;19;m;0;98
Tianjin;Tokio;Tokio;1.5146;11;y;25;19;m;0;99
Chongqing;Montreal;Chongqing;1.6050;11;y;25;19;m;0;100
Kano;Wuhan;Wuhan;1.2780;11;y;25;19;m;0;101
Montreal;Shanghai;Shanghai;1.0682;11;y;25;19;m;0;102
Ankara;Bangkok;Bangkok;1.0339;11;y;25;19;m;0;103
Tianjin;Bangkok;Tianjin;1.4844;11;y;25;19;m;0;104
Harbin;London;London;1.1188;11;y;25;19;m;0;105
Ankara;Tokio;Tokio;0.9688;11;y;25;19;m;0;106
Tokio;Chongqing;Chongqing;1.1116;11;y;25;19;m;0;107
Montreal;Ankara;Montreal;1.4802;11;y;25;19;m;0;108
Kano;Shanghai;Shanghai;1.2344;11;y;25;19;m;0;109
Wuhan;Chongqing;Chongqing;2.2223;11;y;25;19;m;0;110
London;Montreal;London;1.6576;11;y;25;19;m;0;111
Kano;Tokio;Tokio;1.0614;11;y;25;19;m;0;112
London;Seoul;Seoul;1.6296;11;y;25;19;m;0;113
Tianjin;Busan;Tianjin;2.4030;11;y;25;19;m;0;114
Ankara;Ibadan;Ibadan;1.0840;11;y;25;19;m;0;115
Montreal;Tianjin;Tianjin;1.4570;11;y;25;19;m;0;116
Shanghai;Busan;Shanghai;0.9671;11;y;25;19;m;0;117
Tokio;Shanghai;Tokio;0.8437;11;y;25;19;m;0;118
Kano;Bangkok;Bangkok;1.4342;11;y;25;19;m;0;119
Wuhan;Tokio;Tokio;0.8901;11;y;25;19;m;0;120
Rangun;Montreal;Rangun;3.0311;11;y;25;19;m;0;121
Busan;Seoul;Seoul;1.1663;11;y;25;19;m;0;122
Rangun;Santiago;Rangun;1.6195;11;y;25;19;m;0;123
Seoul;Montreal;Seoul;2.4371;11;y;25;19;m;0;124
Tianjin;Wuhan;Tianjin;1.3095;11;y;25;19;m;0;125
Durban;Shanghai;Shanghai;1.0657;11;y;25;19;m;0;126
Santiago;Wuhan;Wuhan;3.3672;11;y;25;19;m;0;127
Ibadan;London;London;1.2949;11;y;25;19;m;0;128
Rangun;Wuhan;Wuhan;4.1671;11;y;25;19;m;0;129
Ibadan;Rangun;Rangun;1.0920;11;y;25;19;m;0;130
Ankara;Busan;Busan;0.8954;11;y;25;19;m;0;131
Durban;Tokio;Tokio;1.7086;11;y;25;19;m;0;132
Santiago;Seoul;Seoul;1.2990;11;y;25;19;m;0;133
Bangkok;Harbin;Bangkok;1.3031;11;y;25;19;m;0;134
London;Tianjin;London;1.7082;11;y;25;19;m;0;135
Chongqing;London;London;1.9495;11;y;25;19;m;0;136
Harbin;Busan;Harbin;2.8266;2;y;20;29;f;1;1
Harbin;Santiago;Santiago;1.3714;2;y;20;29;f;1;2
Shanghai;Busan;Shanghai;1.4747;2;y;20;29;f;1;3
Seoul;Tianjin;Seoul;2.1655;2;y;20;29;f;1;4
Seoul;Bangkok;Bangkok;1.0263;2;y;20;29;f;1;5
Montreal;Ankara;Montreal;1.0190;2;y;20;29;f;1;6
Rangun;Montreal;Montreal;1.3881;2;y;20;29;f;1;7
Montreal;Tianjin;Montreal;1.2812;2;y;20;29;f;1;8
Kano;Bangkok;Bangkok;0.9210;2;y;20;29;f;1;9
Chongqing;Montreal;Montreal;1.1810;2;y;20;29;f;1;10
Tokio;Santiago;Tokio;1.9943;2;y;20;29;f;1;11
Montreal;Durban;Montreal;1.5805;2;y;20;29;f;1;12
Kano;Ibadan;Ibadan;1.7908;2;y;20;29;f;1;13
Ibadan;Rangun;Ibadan;1.5987;2;y;20;29;f;1;14
Wuhan;Ibadan;Ibadan;1.4340;2;y;20;29;f;1;15
Rangun;London;London;1.5057;2;y;20;29;f;1;16
Shanghai;Rangun;Shanghai;2.0653;2;y;20;29;f;1;17
Ankara;Bangkok;Ankara;1.8036;2;y;20;29;f;1;18
Tokio;London;London;1.6040;2;y;20;29;f;1;19
Santiago;Kano;Santiago;1.8642;2;y;20;29;f;1;20
Bangkok;Busan;Bangkok;1.5149;2;y;20;29;f;1;21
Shanghai;Harbin;Shanghai;1.1249;2;y;20;29;f;1;22
Montreal;Shanghai;Montreal;0.9027;2;y;20;29;f;1;23
Ibadan;Montreal;Montreal;1.0301;2;y;20;29;f;1;24
Tianjin;Harbin;Harbin;1.6507;2;y;20;29;f;1;25
Harbin;Rangun;Rangun;1.6766;2;y;20;29;f;1;26
Seoul;Kano;Seoul;1.0565;2;y;20;29;f;1;27
Rangun;Durban;Rangun;2.1291;2;y;20;29;f;1;28
Harbin;Ibadan;Harbin;1.1235;2;y;20;29;f;1;29
Tokio;Shanghai;Shanghai;1.7321;2;y;20;29;f;1;30
Rangun;Seoul;Rangun;0.9288;2;y;20;29;f;1;31
Tianjin;Busan;Tianjin;1.7600;2;y;20;29;f;1;32
Santiago;Wuhan;Santiago;1.2132;2;y;20;29;f;1;33
Durban;Harbin;Durban;1.5628;2;y;20;29;f;1;34
Chongqing;Rangun;Rangun;2.8790;2;y;20;29;f;1;35
Busan;Santiago;Santiago;1.1515;2;y;20;29;f;1;36
Chongqing;Durban;Chongqing;1.9024;2;y;20;29;f;1;37
Busan;Seoul;Seoul;1.0241;2;y;20;29;f;1;38
Busan;Durban;Durban;1.5330;2;y;20;29;f;1;39
Kano;Wuhan;Kano;1.6546;2;y;20;29;f;1;40
Ibadan;Busan;Ibadan;1.5800;2;y;20;29;f;1;41
London;Bangkok;London;1.4426;2;y;20;29;f;1;42
Harbin;Montreal;Montreal;1.0497;2;y;20;29;f;1;43
Tianjin;Shanghai;Shanghai;1.8015;2;y;20;29;f;1;44
Tianjin;Ibadan;Ibadan;1.4836;2;y;20;29;f;1;45
Busan;Montreal;Montreal;1.0887;2;y;20;29;f;1;46
Harbin;London;London;0.8957;2;y;20;29;f;1;47
Montreal;Kano;Montreal;0.8143;2;y;20;29;f;1;48
Chongqing;Seoul;Seoul;1.6576;2;y;20;29;f;1;49
Bangkok;Ibadan;Bangkok;1.2446;2;y;20;29;f;1;50
London;Montreal;London;0.9694;2;y;20;29;f;1;51
Wuhan;Shanghai;Shanghai;1.6959;2;y;20;29;f;1;52
London;Tianjin;London;0.9216;2;y;20;29;f;1;53
Bangkok;Chongqing;Bangkok;1.2304;2;y;20;29;f;1;54
Ibadan;London;London;0.8556;2;y;20;29;f;1;55
Tokio;Harbin;Tokio;0.8607;2;y;20;29;f;1;56
Busan;Rangun;Rangun;1.2178;2;y;20;29;f;1;57
Tokio;Busan;Tokio;2.1016;2;y;20;29;f;1;58
Seoul;Montreal;Montreal;0.8656;2;y;20;29;f;1;59
Kano;Harbin;Harbin;1.2755;2;y;20;29;f;1;60
Rangun;Tianjin;Rangun;0.9776;2;y;20;29;f;1;61
Bangkok;Tokio;Tokio;2.0598;2;y;20;29;f;1;62
Tianjin;Wuhan;Tianjin;1.4839;2;y;20;29;f;1;63
Wuhan;Busan;Wuhan;0.8482;2;y;20;29;f;1;64
Ibadan;Seoul;Seoul;1.3161;2;y;20;29;f;1;65
Seoul;Ankara;Seoul;0.8757;2;y;20;29;f;1;66
Santiago;Seoul;Seoul;0.9972;2;y;20;29;f;1;67
Durban;Shanghai;Shanghai;1.8711;2;y;20;29;f;1;68
Montreal;Tokio;Tokio;1.4331;2;y;20;29;f;1;69
Shanghai;Santiago;Shanghai;0.9193;2;y;20;29;f;1;70
Bangkok;Harbin;Bangkok;1.1058;2;y;20;29;f;1;71
Wuhan;Ankara;Ankara;0.8807;2;y;20;29;f;1;72
Montreal;Wuhan;Montreal;0.6844;2;y;20;29;f;1;73
Rangun;Wuhan;Wuhan;1.1856;2;y;20;29;f;1;74
Wuhan;Bangkok;Bangkok;1.6968;2;y;20;29;f;1;75
Busan;Chongqing;Busan;1.2473;2;y;20;29;f;1;76
Seoul;Wuhan;Seoul;0.8490;2;y;20;29;f;1;77
Shanghai;Ibadan;Shanghai;1.1230;2;y;20;29;f;1;78
Tokio;Chongqing;Tokio;1.0870;2;y;20;29;f;1;79
Shanghai;Chongqing;Shanghai;0.8595;2;y;20;29;f;1;80
Seoul;Tokio;Seoul;1.2244;2;y;20;29;f;1;81
Santiago;Ankara;Ankara;1.9576;2;y;20;29;f;1;82
Kano;Ankara;Ankara;1.2837;2;y;20;29;f;1;83
Tokio;Rangun;Tokio;2.0977;2;y;20;29;f;1;84
Ankara;Busan;Ankara;0.8753;2;y;20;29;f;1;85
Ankara;Ibadan;Ankara;0.7085;2;y;20;29;f;1;86
Ibadan;Chongqing;Ibadan;1.5288;2;y;20;29;f;1;87
Wuhan;Harbin;Wuhan;1.0652;2;y;20;29;f;1;88
Durban;Tianjin;Durban;1.2596;2;y;20;29;f;1;89
Ankara;Harbin;Ankara;1.8299;2;y;20;29;f;1;90
Chongqing;Tianjin;Chongqing;0.9721;2;y;20;29;f;1;91
Seoul;Durban;Seoul;0.9895;2;y;20;29;f;1;92
Chongqing;Santiago;Santiago;1.5425;2;y;20;29;f;1;93
Kano;Tokio;Tokio;0.8282;2;y;20;29;f;1;94
Bangkok;Shanghai;Bangkok;2.2357;2;y;20;29;f;1;95
Ibadan;Santiago;Santiago;0.9618;2;y;20;29;f;1;96
Santiago;London;Santiago;0.7533;2;y;20;29;f;1;97
London;Ankara;London;1.0423;2;y;20;29;f;1;98
Ankara;Rangun;Ankara;1.3486;2;y;20;29;f;1;99
Tianjin;Tokio;Tokio;0.7300;2;y;20;29;f;1;100
London;Wuhan;London;0.7529;2;y;20;29;f;1;101
Wuhan;Tokio;Tokio;0.8392;2;y;20;29;f;1;102
Shanghai;London;London;1.1747;2;y;20;29;f;1;103
Ankara;Chongqing;Ankara;0.9608;2;y;20;29;f;1;104
Santiago;Tianjin;Santiago;1.0266;2;y;20;29;f;1;105
Durban;Kano;Kano;1.2728;2;y;20;29;f;1;106
Tianjin;Bangkok;Bangkok;1.2067;2;y;20;29;f;1;107
Ibadan;Durban;Durban;1.2032;2;y;20;29;f;1;108
Kano;Tianjin;Kano;1.0541;2;y;20;29;f;1;109
Harbin;Seoul;Seoul;0.9578;2;y;20;29;f;1;110
Kano;Shanghai;Shanghai;1.1870;2;y;20;29;f;1;111
Bangkok;Rangun;Bangkok;1.2359;2;y;20;29;f;1;112
Busan;Kano;Kano;1.0509;2;y;20;29;f;1;113
Chongqing;London;London;0.9849;2;y;20;29;f;1;114
Santiago;Montreal;Santiago;1.5448;2;y;20;29;f;1;115
Bangkok;Santiago;Bangkok;1.8918;2;y;20;29;f;1;116
Tianjin;Ankara;Ankara;0.8337;2;y;20;29;f;1;117
Santiago;Durban;Santiago;0.8992;2;y;20;29;f;1;118
London;Durban;London;0.9260;2;y;20;29;f;1;119
Busan;London;London;0.8518;2;y;20;29;f;1;120
Rangun;Santiago;Santiago;1.3402;2;y;20;29;f;1;121
Ankara;Shanghai;Shanghai;0.8169;2;y;20;29;f;1;122
Montreal;Bangkok;Montreal;0.6741;2;y;20;29;f;1;123
Wuhan;Chongqing;Wuhan;2.0340;2;y;20;29;f;1;124
Durban;Bangkok;Bangkok;1.2171;2;y;20;29;f;1;125
Durban;Tokio;Tokio;0.7723;2;y;20;29;f;1;126
Shanghai;Seoul;Shanghai;1.6888;2;y;20;29;f;1;127
Chongqing;Kano;Kano;1.6101;2;y;20;29;f;1;128
London;Kano;London;1.3183;2;y;20;29;f;1;129
Rangun;Kano;Kano;1.7129;2;y;20;29;f;1;130
Durban;Wuhan;Durban;1.6850;2;y;20;29;f;1;131
Durban;Ankara;Ankara;1.3043;2;y;20;29;f;1;132
Harbin;Chongqing;Harbin;1.5720;2;y;20;29;f;1;133
Ankara;Tokio;Tokio;1.0467;2;y;20;29;f;1;134
Tokio;Ibadan;Tokio;1.5433;2;y;20;29;f;1;135
London;Seoul;London;0.9363;2;y;20;29;f;1;136
Chongqing;Shanghai;Chongqing;7.9430;NA;n;23;08;m;0;1
Rangun;Ibadan;Rangun;2.9056;NA;n;23;08;m;0;2
Busan;Tianjin;Busan;3.3235;NA;n;23;08;m;0;3
Kano;Chongqing;Chongqing;2.7239;NA;n;23;08;m;0;4
Seoul;London;Seoul;2.5702;NA;n;23;08;m;0;5
Chongqing;Busan;Busan;4.3663;NA;n;23;08;m;0;6
London;Chongqing;Chongqing;2.1244;NA;n;23;08;m;0;7
Montreal;Seoul;Seoul;4.7201;NA;n;23;08;m;0;8
Tianjin;Kano;Tianjin;3.5198;NA;n;23;08;m;0;9
Montreal;Rangun;Rangun;3.6685;NA;n;23;08;m;0;10
Harbin;Bangkok;Bangkok;2.7142;NA;n;23;08;m;0;11
Santiago;Ibadan;Santiago;3.2787;NA;n;23;08;m;0;12
Shanghai;Bangkok;Bangkok;4.2860;NA;n;23;08;m;0;13
Tianjin;Montreal;Montreal;3.4021;NA;n;23;08;m;0;14
Bangkok;Tianjin;Bangkok;1.7849;NA;n;23;08;m;0;15
Rangun;Bangkok;Bangkok;1.4837;NA;n;23;08;m;0;16
Seoul;Busan;Busan;4.8694;NA;n;23;08;m;0;17
Shanghai;Tokio;Tokio;4.6724;NA;n;23;08;m;0;18
Montreal;Harbin;Montreal;1.7477;NA;n;23;08;m;0;19
Seoul;Chongqing;Chongqing;2.4937;NA;n;23;08;m;0;20
Chongqing;Bangkok;Bangkok;5.9902;NA;n;23;08;m;0;21
London;Tokio;Tokio;4.1251;NA;n;23;08;m;0;22
Wuhan;London;London;1.5632;NA;n;23;08;m;0;23
Harbin;Tianjin;Harbin;11.3431;NA;n;23;08;m;0;24
Busan;Bangkok;Bangkok;1.0934;NA;n;23;08;m;0;25
Ankara;Santiago;Ankara;2.4088;NA;n;23;08;m;0;26
Ibadan;Tokio;Tokio;1.2571;NA;n;23;08;m;0;27
Kano;Montreal;Montreal;3.7212;NA;n;23;08;m;0;28
Kano;Durban;Durban;1.9873;NA;n;23;08;m;0;29
Durban;Santiago;Santiago;2.2230;NA;n;23;08;m;0;30
Wuhan;Durban;Wuhan;2.5913;NA;n;23;08;m;0;31
Busan;Harbin;Harbin;2.3362;NA;n;23;08;m;0;32
Tokio;Kano;Tokio;1.9751;NA;n;23;08;m;0;33
Seoul;Rangun;Rangun;4.4191;NA;n;23;08;m;0;34
Shanghai;Ankara;Shanghai;4.4551;NA;n;23;08;m;0;35
Bangkok;Ankara;Bangkok;0.9118;NA;n;23;08;m;0;36
Wuhan;Kano;Wuhan;2.5532;NA;n;23;08;m;0;37
Montreal;Chongqing;Chongqing;1.6388;NA;n;23;08;m;0;38
Wuhan;Santiago;Santiago;6.7842;NA;n;23;08;m;0;39
Tokio;Ankara;Tokio;1.0164;NA;n;23;08;m;0;40
Tianjin;Rangun;Tianjin;1.4106;NA;n;23;08;m;0;41
Tokio;Wuhan;Tokio;0.8523;NA;n;23;08;m;0;42
Shanghai;Wuhan;Shanghai;0.9846;NA;n;23;08;m;0;43
Durban;London;London;0.8579;NA;n;23;08;m;0;44
Chongqing;Wuhan;Chongqing;0.8398;NA;n;23;08;m;0;45
Montreal;London;London;4.3896;NA;n;23;08;m;0;46
Shanghai;Montreal;Shanghai;1.8451;NA;n;23;08;m;0;47
Busan;Shanghai;Shanghai;1.2753;NA;n;23;08;m;0;48
Santiago;Bangkok;Bangkok;1.5139;NA;n;23;08;m;0;49
Bangkok;Wuhan;Bangkok;0.8401;NA;n;23;08;m;0;50
Shanghai;Durban;Shanghai;1.3436;NA;n;23;08;m;0;51
Chongqing;Ankara;Chongqing;1.7274;NA;n;23;08;m;0;52
Ankara;London;London;0.7469;NA;n;23;08;m;0;53
Santiago;Shanghai;Shanghai;1.3842;NA;n;23;08;m;0;54
Rangun;Shanghai;Shanghai;1.3783;NA;n;23;08;m;0;55
Rangun;Tokio;Tokio;1.0071;NA;n;23;08;m;0;56
Shanghai;Tianjin;Shanghai;1.4307;NA;n;23;08;m;0;57
Harbin;Wuhan;Wuhan;2.0996;NA;n;23;08;m;0;58
Ibadan;Shanghai;Shanghai;2.9911;NA;n;23;08;m;0;59
Wuhan;Tianjin;Tianjin;1.8235;NA;n;23;08;m;0;60
Chongqing;Harbin;Chongqing;0.9915;NA;n;23;08;m;0;61
Kano;Busan;Busan;3.1238;NA;n;23;08;m;0;62
Seoul;Harbin;Seoul;2.6390;NA;n;23;08;m;0;63
Bangkok;Durban;Bangkok;0.8499;NA;n;23;08;m;0;64
Seoul;Ibadan;Seoul;4.0812;NA;n;23;08;m;0;65
Harbin;Ankara;Ankara;1.5983;NA;n;23;08;m;0;66
Ankara;Wuhan;Ankara;1.0176;NA;n;23;08;m;0;67
Tokio;Montreal;Tokio;1.5582;NA;n;23;08;m;0;68
Ibadan;Kano;Ibadan;2.2027;NA;n;23;08;m;0;69
Ankara;Durban;Ankara;8.0361;NA;n;23;08;m;0;70
Santiago;Tokio;Tokio;3.6962;NA;n;23;08;m;0;71
London;Rangun;London;2.0662;NA;n;23;08;m;0;72
Harbin;Kano;Harbin;1.5296;NA;n;23;08;m;0;73
Bangkok;London;Bangkok;1.3108;NA;n;23;08;m;0;74
Santiago;Busan;Santiago;1.3042;NA;n;23;08;m;0;75
Shanghai;Kano;Shanghai;1.0760;NA;n;23;08;m;0;76
Harbin;Shanghai;Shanghai;1.2220;NA;n;23;08;m;0;77
Durban;Montreal;Montreal;1.2459;NA;n;23;08;m;0;78
Durban;Seoul;Seoul;1.5259;NA;n;23;08;m;0;79
Rangun;Busan;Rangun;2.5424;NA;n;23;08;m;0;80
London;Ibadan;London;1.0740;NA;n;23;08;m;0;81
Durban;Ibadan;Durban;2.1388;NA;n;23;08;m;0;82
Kano;Rangun;Rangun;0.7578;NA;n;23;08;m;0;83
Ibadan;Harbin;Ibadan;4.1684;NA;n;23;08;m;0;84
Montreal;Busan;Montreal;1.1350;NA;n;23;08;m;0;85
Tokio;Seoul;Tokio;1.9783;NA;n;23;08;m;0;86
Busan;Wuhan;Busan;4.1468;NA;n;23;08;m;0;87
Ankara;Montreal;Ankara;0.8570;NA;n;23;08;m;0;88
Tokio;Durban;Tokio;6.3788;NA;n;23;08;m;0;89
Ibadan;Ankara;Ankara;3.8083;NA;n;23;08;m;0;90
Wuhan;Seoul;Seoul;1.9925;NA;n;23;08;m;0;91
Busan;Ankara;Ankara;1.5086;NA;n;23;08;m;0;92
Durban;Busan;Durban;2.4760;NA;n;23;08;m;0;93
London;Santiago;London;1.6642;NA;n;23;08;m;0;94
Harbin;Tokio;Tokio;0.7378;NA;n;23;08;m;0;95
Montreal;Ibadan;Montreal;3.6468;NA;n;23;08;m;0;96
Chongqing;Ibadan;Chongqing;1.8625;NA;n;23;08;m;0;97
Ankara;Seoul;Seoul;2.8951;NA;n;23;08;m;0;98
Rangun;Chongqing;Chongqing;3.1333;NA;n;23;08;m;0;99
Seoul;Shanghai;Shanghai;2.3771;NA;n;23;08;m;0;100
London;Harbin;London;0.9215;NA;n;23;08;m;0;101
Seoul;Santiago;Seoul;1.5522;NA;n;23;08;m;0;102
Bangkok;Seoul;Bangkok;1.8049;NA;n;23;08;m;0;103
Kano;Seoul;Seoul;0.9707;NA;n;23;08;m;0;104
Busan;Ibadan;Busan;2.0019;NA;n;23;08;m;0;105
Tokio;Bangkok;Bangkok;3.0328;NA;n;23;08;m;0;106
Tokio;Tianjin;Tokio;2.4810;NA;n;23;08;m;0;107
Kano;Santiago;Santiago;0.8532;NA;n;23;08;m;0;108
Ibadan;Wuhan;Wuhan;4.9442;NA;n;23;08;m;0;109
London;Shanghai;Shanghai;2.6333;NA;n;23;08;m;0;110
Ibadan;Bangkok;Bangkok;1.0878;NA;n;23;08;m;0;111
Bangkok;Montreal;Bangkok;1.3488;NA;n;23;08;m;0;112
Tianjin;Seoul;Seoul;2.2788;NA;n;23;08;m;0;113
Kano;London;London;0.7895;NA;n;23;08;m;0;114
Santiago;Harbin;Santiago;2.0584;NA;n;23;08;m;0;115
Durban;Chongqing;Chongqing;0.8602;NA;n;23;08;m;0;116
Ankara;Kano;Ankara;4.1250;NA;n;23;08;m;0;117
Santiago;Chongqing;Chongqing;1.3007;NA;n;23;08;m;0;118
Rangun;Ankara;Ankara;2.5839;NA;n;23;08;m;0;119
Bangkok;Kano;Bangkok;0.9672;NA;n;23;08;m;0;120
London;Busan;London;2.4700;NA;n;23;08;m;0;121
Busan;Tokio;Tokio;0.9239;NA;n;23;08;m;0;122
Tianjin;London;London;1.3655;NA;n;23;08;m;0;123
Harbin;Durban;Harbin;2.4111;NA;n;23;08;m;0;124
Wuhan;Rangun;Rangun;1.7905;NA;n;23;08;m;0;125
Ibadan;Tianjin;Ibadan;1.5189;NA;n;23;08;m;0;126
Rangun;Harbin;Harbin;1.5125;NA;n;23;08;m;0;127
Wuhan;Montreal;Montreal;1.8830;NA;n;23;08;m;0;128
Santiago;Rangun;Santiago;1.4342;NA;n;23;08;m;0;129
Tianjin;Santiago;Santiago;1.9393;NA;n;23;08;m;0;130
Tianjin;Durban;Tianjin;1.5938;NA;n;23;08;m;0;131
Ankara;Tianjin;Ankara;2.2888;NA;n;23;08;m;0;132
Chongqing;Tokio;Tokio;1.1730;NA;n;23;08;m;0;133
Montreal;Santiago;Montreal;2.8709;NA;n;23;08;m;0;134
Durban;Rangun;Rangun;2.8195;NA;n;23;08;m;0;135
Tianjin;Chongqing;Tianjin;2.2958;NA;n;23;08;m;0;136
Montreal;London;Montreal;4.6299;NA;n;34;18;f;1;1
Harbin;Bangkok;Bangkok;2.0578;NA;n;34;18;f;1;2
Tianjin;Santiago;Santiago;1.9152;NA;n;34;18;f;1;3
Harbin;Ankara;Ankara;2.0730;NA;n;34;18;f;1;4
Bangkok;Montreal;Bangkok;4.2060;NA;n;34;18;f;1;5
Wuhan;Kano;Kano;3.1758;NA;n;34;18;f;1;6
Wuhan;Santiago;Santiago;1.4990;NA;n;34;18;f;1;7
Santiago;Busan;Santiago;1.7129;NA;n;34;18;f;1;8
Bangkok;London;Bangkok;1.7301;NA;n;34;18;f;1;9
Seoul;Santiago;Seoul;5.4453;NA;n;34;18;f;1;10
Santiago;Ibadan;Santiago;1.5190;NA;n;34;18;f;1;11
Montreal;Harbin;Montreal;1.6874;NA;n;34;18;f;1;12
Montreal;Chongqing;Montreal;1.3153;NA;n;34;18;f;1;13
Durban;Busan;Durban;2.6167;NA;n;34;18;f;1;14
Shanghai;Bangkok;Shanghai;4.8721;NA;n;34;18;f;1;15
Tokio;Tianjin;Tokio;1.0397;NA;n;34;18;f;1;16
Bangkok;Tianjin;Bangkok;1.9998;NA;n;34;18;f;1;17
Santiago;Bangkok;Bangkok;3.9878;NA;n;34;18;f;1;18
Kano;London;London;1.7509;NA;n;34;18;f;1;19
London;Shanghai;Shanghai;1.3715;NA;n;34;18;f;1;20
Seoul;Shanghai;Seoul;4.6482;NA;n;34;18;f;1;21
Chongqing;Harbin;Harbin;3.8199;NA;n;34;18;f;1;22
Ibadan;Kano;Kano;3.5003;NA;n;34;18;f;1;23
Tokio;Seoul;Seoul;6.6919;NA;n;34;18;f;1;24
Kano;Seoul;Seoul;1.2744;NA;n;34;18;f;1;25
Montreal;Seoul;Seoul;1.3041;NA;n;34;18;f;1;26
Santiago;Chongqing;Santiago;1.5994;NA;n;34;18;f;1;27
Seoul;Rangun;Seoul;1.2738;NA;n;34;18;f;1;28
Ibadan;Harbin;Harbin;2.9187;NA;n;34;18;f;1;29
Rangun;Shanghai;Shanghai;1.4316;NA;n;34;18;f;1;30
Shanghai;Montreal;Shanghai;1.5691;NA;n;34;18;f;1;31
Montreal;Ibadan;Montreal;1.4952;NA;n;34;18;f;1;32
London;Harbin;London;1.2486;NA;n;34;18;f;1;33
Tokio;Bangkok;Bangkok;2.5163;NA;n;34;18;f;1;34
Ibadan;Tokio;Tokio;1.6785;NA;n;34;18;f;1;35
Harbin;Tianjin;Tianjin;2.5361;NA;n;34;18;f;1;36
Ankara;Santiago;Santiago;2.7533;NA;n;34;18;f;1;37
Rangun;Tokio;Tokio;7.0132;NA;n;34;18;f;1;38
Harbin;Tokio;Tokio;1.7725;NA;n;34;18;f;1;39
Tianjin;Chongqing;Tianjin;3.7570;NA;n;34;18;f;1;40
Chongqing;Wuhan;Wuhan;1.2108;NA;n;34;18;f;1;41
Santiago;Harbin;Santiago;1.1323;NA;n;34;18;f;1;42
Durban;London;London;3.4202;NA;n;34;18;f;1;43
Rangun;Harbin;Harbin;1.1528;NA;n;34;18;f;1;44
London;Tokio;Tokio;1.4509;NA;n;34;18;f;1;45
Montreal;Busan;Montreal;1.8767;NA;n;34;18;f;1;46
London;Busan;London;1.6965;NA;n;34;18;f;1;47
Kano;Durban;Kano;2.9179;NA;n;34;18;f;1;48
Seoul;Chongqing;Seoul;1.0398;NA;n;34;18;f;1;49
Seoul;Busan;Seoul;0.9523;NA;n;34;18;f;1;50
Bangkok;Ankara;Bangkok;2.1232;NA;n;34;18;f;1;51
Busan;Tianjin;Busan;1.3522;NA;n;34;18;f;1;52
Seoul;Harbin;Seoul;0.8482;NA;n;34;18;f;1;53
Rangun;Bangkok;Bangkok;1.0635;NA;n;34;18;f;1;54
Durban;Ibadan;Durban;1.9215;NA;n;34;18;f;1;55
Shanghai;Ankara;Shanghai;1.7282;NA;n;34;18;f;1;56
Kano;Busan;Kano;2.5299;NA;n;34;18;f;1;57
Tianjin;Montreal;Montreal;2.2102;NA;n;34;18;f;1;58
Ibadan;Bangkok;Bangkok;1.4561;NA;n;34;18;f;1;59
Seoul;Ibadan;Seoul;1.1824;NA;n;34;18;f;1;60
Wuhan;London;London;1.7065;NA;n;34;18;f;1;61
Rangun;Ankara;Ankara;1.2247;NA;n;34;18;f;1;62
Tianjin;Seoul;Seoul;1.0895;NA;n;34;18;f;1;63
Harbin;Kano;Kano;1.6825;NA;n;34;18;f;1;64
Tokio;Ankara;Tokio;2.5511;NA;n;34;18;f;1;65
Rangun;Chongqing;Rangun;3.0395;NA;n;34;18;f;1;66
Durban;Santiago;Santiago;1.6345;NA;n;34;18;f;1;67
Ibadan;Tianjin;Ibadan;3.9981;NA;n;34;18;f;1;68
Wuhan;Seoul;Seoul;1.6699;NA;n;34;18;f;1;69
Tianjin;Rangun;Tianjin;2.3101;NA;n;34;18;f;1;70
Busan;Harbin;Harbin;1.6518;NA;n;34;18;f;1;71
Ibadan;Ankara;Ankara;1.2405;NA;n;34;18;f;1;72
Harbin;Wuhan;Harbin;2.4712;NA;n;34;18;f;1;73
Busan;Shanghai;Shanghai;1.0918;NA;n;34;18;f;1;74
Ibadan;Shanghai;Shanghai;0.8785;NA;n;34;18;f;1;75
Shanghai;Durban;Shanghai;1.0966;NA;n;34;18;f;1;76
Ankara;Durban;Ankara;1.8485;NA;n;34;18;f;1;77
Ankara;Tianjin;Ankara;0.6879;NA;n;34;18;f;1;78
London;Santiago;Santiago;3.8926;NA;n;34;18;f;1;79
Harbin;Shanghai;Shanghai;1.6785;NA;n;34;18;f;1;80
Ankara;Kano;Ankara;1.8423;NA;n;34;18;f;1;81
London;Rangun;London;2.9770;NA;n;34;18;f;1;82
Chongqing;Ankara;Ankara;1.4703;NA;n;34;18;f;1;83
London;Ibadan;London;1.7491;NA;n;34;18;f;1;84
Bangkok;Durban;Bangkok;1.9924;NA;n;34;18;f;1;85
Wuhan;Rangun;Rangun;2.1088;NA;n;34;18;f;1;86
Wuhan;Tianjin;Tianjin;1.7293;NA;n;34;18;f;1;87
Ibadan;Wuhan;Ibadan;1.5971;NA;n;34;18;f;1;88
Kano;Montreal;Montreal;2.2325;NA;n;34;18;f;1;89
Shanghai;Tokio;Shanghai;3.3258;NA;n;34;18;f;1;90
Tokio;Kano;Tokio;1.2503;NA;n;34;18;f;1;91
Tokio;Durban;Tokio;0.6637;NA;n;34;18;f;1;92
Busan;Tokio;Tokio;1.3965;NA;n;34;18;f;1;93
London;Chongqing;London;0.9835;NA;n;34;18;f;1;94
Kano;Chongqing;Kano;1.5771;NA;n;34;18;f;1;95
Busan;Bangkok;Bangkok;1.1546;NA;n;34;18;f;1;96
Wuhan;Durban;Durban;2.3375;NA;n;34;18;f;1;97
Montreal;Rangun;Montreal;3.0220;NA;n;34;18;f;1;98
Chongqing;Ibadan;Ibadan;2.2355;NA;n;34;18;f;1;99
Rangun;Busan;Rangun;2.0139;NA;n;34;18;f;1;100
Ankara;Seoul;Seoul;1.2594;NA;n;34;18;f;1;101
Harbin;Durban;Harbin;1.7179;NA;n;34;18;f;1;102
Durban;Rangun;Durban;2.2510;NA;n;34;18;f;1;103
Wuhan;Montreal;Montreal;0.9553;NA;n;34;18;f;1;104
Busan;Wuhan;Busan;1.8966;NA;n;34;18;f;1;105
Chongqing;Busan;Busan;1.5143;NA;n;34;18;f;1;106
Durban;Seoul;Seoul;1.1044;NA;n;34;18;f;1;107
Bangkok;Seoul;Seoul;2.3690;NA;n;34;18;f;1;108
Tianjin;London;London;1.5522;NA;n;34;18;f;1;109
Chongqing;Tokio;Tokio;1.0872;NA;n;34;18;f;1;110
Durban;Montreal;Montreal;1.5045;NA;n;34;18;f;1;111
Ankara;Wuhan;Ankara;1.3665;NA;n;34;18;f;1;112
Ankara;London;Ankara;2.1105;NA;n;34;18;f;1;113
Ankara;Montreal;Montreal;3.4201;NA;n;34;18;f;1;114
Busan;Ankara;Ankara;1.4658;NA;n;34;18;f;1;115
Kano;Rangun;Kano;2.1358;NA;n;34;18;f;1;116
Busan;Ibadan;Ibadan;1.8199;NA;n;34;18;f;1;117
Santiago;Rangun;Santiago;1.2764;NA;n;34;18;f;1;118
Shanghai;Wuhan;Shanghai;1.8252;NA;n;34;18;f;1;119
Chongqing;Shanghai;Shanghai;1.3148;NA;n;34;18;f;1;120
Bangkok;Wuhan;Bangkok;1.7329;NA;n;34;18;f;1;121
Durban;Chongqing;Durban;1.4084;NA;n;34;18;f;1;122
Bangkok;Kano;Bangkok;1.4495;NA;n;34;18;f;1;123
Chongqing;Bangkok;Bangkok;1.4672;NA;n;34;18;f;1;124
Shanghai;Tianjin;Shanghai;1.8997;NA;n;34;18;f;1;125
Rangun;Ibadan;Ibadan;2.2552;NA;n;34;18;f;1;126
Kano;Santiago;Santiago;1.3371;NA;n;34;18;f;1;127
Shanghai;Kano;Shanghai;1.0467;NA;n;34;18;f;1;128
Tokio;Montreal;Tokio;2.1684;NA;n;34;18;f;1;129
Tokio;Wuhan;Tokio;1.0569;NA;n;34;18;f;1;130
Montreal;Santiago;Santiago;2.6789;NA;n;34;18;f;1;131
Tianjin;Durban;Durban;3.0814;NA;n;34;18;f;1;132
Tianjin;Kano;Kano;1.1054;NA;n;34;18;f;1;133
Santiago;Shanghai;Shanghai;2.2240;NA;n;34;18;f;1;134
Santiago;Tokio;Tokio;4.6173;NA;n;34;18;f;1;135
Seoul;London;Seoul;1.0066;NA;n;34;18;f;1;136
Santiago;Chongqing;Santiago;8.3467;6;y;22;02;f;0;1
Harbin;Ankara;Ankara;7.5271;6;y;22;02;f;0;2
London;Shanghai;Shanghai;1.9328;6;y;22;02;f;0;3
Tokio;Kano;Tokio;2.0100;6;y;22;02;f;0;4
Ankara;Durban;Ankara;2.3049;6;y;22;02;f;0;5
Rangun;Tokio;Tokio;1.6354;6;y;22;02;f;0;6
Seoul;Chongqing;Seoul;3.0164;6;y;22;02;f;0;7
Seoul;Busan;Seoul;4.9561;6;y;22;02;f;0;8
Busan;Shanghai;Shanghai;1.7333;6;y;22;02;f;0;9
Rangun;Ibadan;Rangun;9.0025;6;y;22;02;f;0;10
Harbin;Tianjin;Harbin;1.5199;6;y;22;02;f;0;11
Santiago;Ibadan;Santiago;3.6033;6;y;22;02;f;0;12
London;Ibadan;London;2.0443;6;y;22;02;f;0;13
Durban;Chongqing;Chongqing;1.5680;6;y;22;02;f;0;14
Kano;London;London;1.4936;6;y;22;02;f;0;15
Santiago;Bangkok;Bangkok;1.5357;6;y;22;02;f;0;16
Montreal;Busan;Montreal;1.2915;6;y;22;02;f;0;17
Shanghai;Durban;Shanghai;0.9344;6;y;22;02;f;0;18
Harbin;Wuhan;Harbin;2.1965;6;y;22;02;f;0;19
Wuhan;Santiago;Santiago;1.0980;6;y;22;02;f;0;20
Ibadan;Shanghai;Shanghai;0.9177;6;y;22;02;f;0;21
Wuhan;Kano;Kano;1.7496;6;y;22;02;f;0;22
Harbin;Durban;Harbin;2.0187;6;y;22;02;f;0;23
Wuhan;Durban;Durban;1.6416;6;y;22;02;f;0;24
Busan;Ibadan;Busan;2.2666;6;y;22;02;f;0;25
Tokio;Bangkok;Bangkok;3.1109;6;y;22;02;f;0;26
Wuhan;Tianjin;Tianjin;1.4523;6;y;22;02;f;0;27
Tokio;Montreal;Tokio;1.5121;6;y;22;02;f;0;28
Harbin;Kano;Harbin;1.2840;6;y;22;02;f;0;29
Kano;Durban;Durban;1.5690;6;y;22;02;f;0;30
Bangkok;Tianjin;Bangkok;1.0145;6;y;22;02;f;0;31
Wuhan;Rangun;Wuhan;4.2965;6;y;22;02;f;0;32
Durban;Rangun;Durban;1.6517;6;y;22;02;f;0;33
Seoul;London;Seoul;1.1088;6;y;22;02;f;0;34
Kano;Santiago;Santiago;2.7692;6;y;22;02;f;0;35
Durban;Busan;Durban;4.1346;6;y;22;02;f;0;36
Rangun;Bangkok;Bangkok;0.9803;6;y;22;02;f;0;37
Ankara;Wuhan;Ankara;0.8061;6;y;22;02;f;0;38
Montreal;Ibadan;Montreal;0.9085;6;y;22;02;f;0;39
Tianjin;Chongqing;Chongqing;1.0291;6;y;22;02;f;0;40
Tokio;Seoul;Seoul;1.2372;6;y;22;02;f;0;41
Chongqing;Ibadan;Chongqing;2.2952;6;y;22;02;f;0;42
Chongqing;Ankara;Ankara;2.1185;6;y;22;02;f;0;43
Bangkok;Montreal;Bangkok;0.7796;6;y;22;02;f;0;44
Bangkok;Wuhan;Bangkok;0.7274;6;y;22;02;f;0;45
Tianjin;London;London;1.0573;6;y;22;02;f;0;46
London;Chongqing;London;1.4352;6;y;22;02;f;0;47
Santiago;Rangun;Santiago;0.7117;6;y;22;02;f;0;48
Ibadan;Wuhan;Wuhan;1.1856;6;y;22;02;f;0;49
Rangun;Chongqing;Chongqing;0.9051;6;y;22;02;f;0;50
Kano;Montreal;Montreal;1.9050;6;y;22;02;f;0;51
Santiago;Shanghai;Shanghai;1.3929;6;y;22;02;f;0;52
Rangun;Busan;Busan;1.1360;6;y;22;02;f;0;53
Bangkok;Seoul;Seoul;0.8317;6;y;22;02;f;0;54
Rangun;Shanghai;Shanghai;4.2833;6;y;22;02;f;0;55
Durban;Montreal;Montreal;1.3588;6;y;22;02;f;0;56
Shanghai;Wuhan;Shanghai;0.6544;6;y;22;02;f;0;57
Montreal;Seoul;Seoul;1.3168;6;y;22;02;f;0;58
Harbin;Shanghai;Shanghai;0.7415;6;y;22;02;f;0;59
Seoul;Ibadan;Seoul;0.7367;6;y;22;02;f;0;60
Busan;Tianjin;Tianjin;1.4219;6;y;22;02;f;0;61
Santiago;Busan;Santiago;0.7923;6;y;22;02;f;0;62
Wuhan;Seoul;Seoul;0.7258;6;y;22;02;f;0;63
Ankara;Tianjin;Ankara;0.6175;6;y;22;02;f;0;64
Harbin;Bangkok;Bangkok;0.6729;6;y;22;02;f;0;65
Busan;Harbin;Busan;0.6962;6;y;22;02;f;0;66
Wuhan;London;London;0.5689;6;y;22;02;f;0;67
Ankara;Kano;Ankara;0.5501;6;y;22;02;f;0;68
London;Santiago;Santiago;3.9255;6;y;22;02;f;0;69
Tianjin;Seoul;Seoul;1.3867;6;y;22;02;f;0;70
Tokio;Durban;Tokio;0.8808;6;y;22;02;f;0;71
Montreal;Harbin;Montreal;1.0722;6;y;22;02;f;0;72
Ibadan;Ankara;Ankara;0.8867;6;y;22;02;f;0;73
Chongqing;Busan;Chongqing;0.9544;6;y;22;02;f;0;74
Seoul;Rangun;Seoul;0.5427;6;y;22;02;f;0;75
Santiago;Harbin;Santiago;1.0316;6;y;22;02;f;0;76
Chongqing;Wuhan;Chongqing;3.6091;6;y;22;02;f;0;77
London;Harbin;London;2.1098;6;y;22;02;f;0;78
Shanghai;Ankara;Shanghai;0.5811;6;y;22;02;f;0;79
Shanghai;Bangkok;Bangkok;2.4671;6;y;22;02;f;0;80
Shanghai;Tokio;Shanghai;10.0092;6;y;22;02;f;0;81
Rangun;Ankara;Ankara;0.7264;6;y;22;02;f;0;82
Wuhan;Montreal;Montreal;0.9522;6;y;22;02;f;0;83
Durban;London;London;1.3945;6;y;22;02;f;0;84
Ibadan;Harbin;Harbin;0.9429;6;y;22;02;f;0;85
Chongqing;Tokio;Tokio;3.2196;6;y;22;02;f;0;86
Busan;Tokio;Tokio;0.6895;6;y;22;02;f;0;87
Seoul;Shanghai;Shanghai;2.6052;6;y;22;02;f;0;88
Kano;Chongqing;Chongqing;1.1099;6;y;22;02;f;0;89
Tianjin;Montreal;Montreal;0.6948;6;y;22;02;f;0;90
Tianjin;Durban;Durban;0.6807;6;y;22;02;f;0;91
Tokio;Tianjin;Tokio;0.6547;6;y;22;02;f;0;92
Kano;Busan;Busan;0.7187;6;y;22;02;f;0;93
Ibadan;Tianjin;Tianjin;0.8602;6;y;22;02;f;0;94
Bangkok;Durban;Bangkok;0.5331;6;y;22;02;f;0;95
Chongqing;Bangkok;Bangkok;0.8237;6;y;22;02;f;0;96
Ankara;Santiago;Ankara;0.8961;6;y;22;02;f;0;97
Durban;Ibadan;Durban;1.6760;6;y;22;02;f;0;98
Shanghai;Tianjin;Shanghai;4.8544;6;y;22;02;f;0;99
Tianjin;Kano;Tianjin;0.7413;6;y;22;02;f;0;100
Durban;Seoul;Seoul;0.7905;6;y;22;02;f;0;101
Tianjin;Santiago;Santiago;4.5225;6;y;22;02;f;0;102
Bangkok;Kano;Bangkok;2.6730;6;y;22;02;f;0;103
London;Tokio;Tokio;0.7555;6;y;22;02;f;0;104
Busan;Ankara;Ankara;0.8462;6;y;22;02;f;0;105
Tokio;Ankara;Tokio;0.5600;6;y;22;02;f;0;106
Ibadan;Kano;Ibadan;2.0535;6;y;22;02;f;0;107
Rangun;Harbin;Rangun;1.1405;6;y;22;02;f;0;108
Montreal;Santiago;Santiago;2.9002;6;y;22;02;f;0;109
Durban;Santiago;Santiago;1.4070;6;y;22;02;f;0;110
Chongqing;Shanghai;Shanghai;0.8986;6;y;22;02;f;0;111
Busan;Bangkok;Bangkok;0.6576;6;y;22;02;f;0;112
Montreal;Rangun;Montreal;1.0239;6;y;22;02;f;0;113
Shanghai;Montreal;Shanghai;0.5090;6;y;22;02;f;0;114
Ankara;London;Ankara;1.0657;6;y;22;02;f;0;115
Ibadan;Bangkok;Bangkok;0.7665;6;y;22;02;f;0;116
London;Busan;London;0.9770;6;y;22;02;f;0;117
Seoul;Santiago;Seoul;0.6078;6;y;22;02;f;0;118
Shanghai;Kano;Shanghai;0.6728;6;y;22;02;f;0;119
Harbin;Tokio;Tokio;0.6230;6;y;22;02;f;0;120
Seoul;Harbin;Seoul;0.8500;6;y;22;02;f;0;121
London;Rangun;London;1.8072;6;y;22;02;f;0;122
Ibadan;Tokio;Tokio;1.0402;6;y;22;02;f;0;123
Bangkok;London;Bangkok;0.6807;6;y;22;02;f;0;124
Montreal;Chongqing;Montreal;1.1787;6;y;22;02;f;0;125
Ankara;Montreal;Ankara;3.0118;6;y;22;02;f;0;126
Kano;Seoul;Seoul;0.7148;6;y;22;02;f;0;127
Kano;Rangun;Rangun;2.4140;6;y;22;02;f;0;128
Montreal;London;Montreal;1.9506;6;y;22;02;f;0;129
Chongqing;Harbin;Chongqing;0.8389;6;y;22;02;f;0;130
Tianjin;Rangun;Tianjin;1.5042;6;y;22;02;f;0;131
Bangkok;Ankara;Bangkok;0.5304;6;y;22;02;f;0;132
Santiago;Tokio;Tokio;0.8717;6;y;22;02;f;0;133
Ankara;Seoul;Ankara;0.5540;6;y;22;02;f;0;134
Tokio;Wuhan;Tokio;2.2224;6;y;22;02;f;0;135
Busan;Wuhan;Busan;1.3206;6;y;22;02;f;0;136
London;Ankara;London;3.7855;4;y;21;31;f;1;1
Tianjin;Ankara;Ankara;3.0610;4;y;21;31;f;1;2
Bangkok;Santiago;Bangkok;2.0407;4;y;21;31;f;1;3
Tokio;Busan;Tokio;3.9175;4;y;21;31;f;1;4
Shanghai;London;Shanghai;4.1094;4;y;21;31;f;1;5
Ankara;Chongqing;Ankara;1.6923;4;y;21;31;f;1;6
Wuhan;Ibadan;Ibadan;7.2618;4;y;21;31;f;1;7
Durban;Wuhan;Wuhan;2.8775;4;y;21;31;f;1;8
Busan;Chongqing;Busan;2.7810;4;y;21;31;f;1;9
Tianjin;Wuhan;Wuhan;1.5255;4;y;21;31;f;1;10
Shanghai;Santiago;Shanghai;2.9092;4;y;21;31;f;1;11
Shanghai;Seoul;Shanghai;2.8774;4;y;21;31;f;1;12
Kano;Wuhan;Wuhan;1.3732;4;y;21;31;f;1;13
Santiago;Ankara;Ankara;3.1494;4;y;21;31;f;1;14
Ibadan;Chongqing;Ibadan;2.1411;4;y;21;31;f;1;15
Tianjin;Shanghai;Shanghai;4.3009;4;y;21;31;f;1;16
Ankara;Harbin;Ankara;3.4454;4;y;21;31;f;1;17
Busan;Seoul;Seoul;9.8537;4;y;21;31;f;1;18
Seoul;Durban;Seoul;3.5655;4;y;21;31;f;1;19
Chongqing;Durban;Durban;8.1652;4;y;21;31;f;1;20
Chongqing;London;London;2.1970;4;y;21;31;f;1;21
Seoul;Tokio;Tokio;4.1419;4;y;21;31;f;1;22
Seoul;Bangkok;Bangkok;2.7492;4;y;21;31;f;1;23
Santiago;London;London;1.4452;4;y;21;31;f;1;24
Chongqing;Montreal;Montreal;1.5966;4;y;21;31;f;1;25
Harbin;Ibadan;Ibadan;3.5494;4;y;21;31;f;1;26
Santiago;Wuhan;Santiago;2.2931;4;y;21;31;f;1;27
London;Durban;London;2.4134;4;y;21;31;f;1;28
Bangkok;Harbin;Bangkok;2.0456;4;y;21;31;f;1;29
Bangkok;Chongqing;Bangkok;2.0928;4;y;21;31;f;1;30
Tianjin;Harbin;Harbin;4.3413;4;y;21;31;f;1;31
Bangkok;Shanghai;Bangkok;10.3013;4;y;21;31;f;1;32
Kano;Bangkok;Bangkok;1.4376;4;y;21;31;f;1;33
Tianjin;Bangkok;Bangkok;3.0371;4;y;21;31;f;1;34
Rangun;Wuhan;Wuhan;7.8009;4;y;21;31;f;1;35
Montreal;Wuhan;Montreal;3.6534;4;y;21;31;f;1;36
London;Wuhan;London;1.9245;4;y;21;31;f;1;37
Tianjin;Ibadan;Tianjin;4.2534;4;y;21;31;f;1;38
Kano;Ibadan;Ibadan;3.9658;4;y;21;31;f;1;39
Tokio;Ibadan;Tokio;2.5736;4;y;21;31;f;1;40
Montreal;Bangkok;Bangkok;1.4371;4;y;21;31;f;1;41
Montreal;Ankara;Montreal;4.9414;4;y;21;31;f;1;42
Chongqing;Kano;Kano;5.9016;4;y;21;31;f;1;43
Kano;Shanghai;Shanghai;1.5575;4;y;21;31;f;1;44
Rangun;Kano;Kano;11.2140;4;y;21;31;f;1;45
Tokio;Shanghai;Shanghai;10.7974;4;y;21;31;f;1;46
Durban;Tokio;Tokio;4.0856;4;y;21;31;f;1;47
Harbin;Santiago;Santiago;2.5409;4;y;21;31;f;1;48
Montreal;Shanghai;Shanghai;6.1492;4;y;21;31;f;1;49
Tokio;London;Tokio;3.0616;4;y;21;31;f;1;50
Wuhan;Ankara;Ankara;1.3016;4;y;21;31;f;1;51
Tokio;Rangun;Tokio;5.5652;4;y;21;31;f;1;52
London;Bangkok;Bangkok;3.1573;4;y;21;31;f;1;53
Seoul;Tianjin;Seoul;5.9014;4;y;21;31;f;1;54
Kano;Ankara;Ankara;1.5739;4;y;21;31;f;1;55
Rangun;Tianjin;Rangun;8.1251;4;y;21;31;f;1;56
Shanghai;Ibadan;Shanghai;2.1172;4;y;21;31;f;1;57
Kano;Tokio;Tokio;2.1180;4;y;21;31;f;1;58
Ankara;Bangkok;Bangkok;2.3572;4;y;21;31;f;1;59
Tokio;Chongqing;Tokio;1.4773;4;y;21;31;f;1;60
Harbin;Rangun;Rangun;3.0377;4;y;21;31;f;1;61
London;Tianjin;London;1.5654;4;y;21;31;f;1;62
Ibadan;Santiago;Santiago;2.3174;4;y;21;31;f;1;63
Santiago;Kano;Santiago;1.8214;4;y;21;31;f;1;64
Ibadan;Durban;Durban;6.2778;4;y;21;31;f;1;65
Harbin;London;London;2.6136;4;y;21;31;f;1;66
Tianjin;Tokio;Tokio;3.0374;4;y;21;31;f;1;67
Montreal;Kano;Montreal;2.3414;4;y;21;31;f;1;68
Ibadan;Montreal;Montreal;4.6090;4;y;21;31;f;1;69
Rangun;Durban;Durban;2.8295;4;y;21;31;f;1;70
Bangkok;Busan;Bangkok;1.0132;4;y;21;31;f;1;71
Wuhan;Busan;Busan;2.0462;4;y;21;31;f;1;72
Ankara;Ibadan;Ankara;19.7821;4;y;21;31;f;1;73
Busan;Rangun;Rangun;2.9737;4;y;21;31;f;1;74
Durban;Tianjin;Durban;1.8532;4;y;21;31;f;1;75
Harbin;Seoul;Seoul;1.9577;4;y;21;31;f;1;76
Busan;Montreal;Montreal;1.6698;4;y;21;31;f;1;77
Santiago;Tianjin;Santiago;2.8852;4;y;21;31;f;1;78
Ibadan;Busan;Busan;1.0538;4;y;21;31;f;1;79
Kano;Tianjin;Tianjin;1.2142;4;y;21;31;f;1;80
Durban;Kano;Durban;3.3822;4;y;21;31;f;1;81
Wuhan;Bangkok;Bangkok;1.2281;4;y;21;31;f;1;82
Durban;Bangkok;Bangkok;1.3659;4;y;21;31;f;1;83
Durban;Shanghai;Shanghai;1.3335;4;y;21;31;f;1;84
Santiago;Montreal;Montreal;2.8613;4;y;21;31;f;1;85
Bangkok;Rangun;Bangkok;1.0053;4;y;21;31;f;1;86
London;Seoul;London;1.0059;4;y;21;31;f;1;87
Montreal;Tokio;Tokio;3.8460;4;y;21;31;f;1;88
Busan;Kano;Busan;1.4061;4;y;21;31;f;1;89
Ankara;Tokio;Ankara;0.8461;4;y;21;31;f;1;90
London;Montreal;London;4.2455;4;y;21;31;f;1;91
Ibadan;Rangun;Ibadan;1.4057;4;y;21;31;f;1;92
Wuhan;Harbin;Wuhan;3.9096;4;y;21;31;f;1;93
Rangun;Seoul;Seoul;1.5736;4;y;21;31;f;1;94
Ibadan;London;London;1.1255;4;y;21;31;f;1;95
Kano;Harbin;Harbin;1.0303;4;y;21;31;f;1;96
Rangun;London;London;1.1420;4;y;21;31;f;1;97
Seoul;Ankara;Ankara;2.1573;4;y;21;31;f;1;98
Shanghai;Busan;Shanghai;0.8697;4;y;21;31;f;1;99
Busan;Durban;Durban;1.6219;4;y;21;31;f;1;100
Durban;Harbin;Durban;1.1740;4;y;21;31;f;1;101
Rangun;Montreal;Montreal;0.8616;4;y;21;31;f;1;102
Harbin;Busan;Busan;3.3615;4;y;21;31;f;1;103
Shanghai;Chongqing;Shanghai;0.7330;4;y;21;31;f;1;104
Wuhan;Tokio;Tokio;1.3257;4;y;21;31;f;1;105
Ankara;Shanghai;Shanghai;1.0696;4;y;21;31;f;1;106
Busan;Santiago;Busan;1.2695;4;y;21;31;f;1;107
Durban;Ankara;Ankara;1.6060;4;y;21;31;f;1;108
London;Kano;London;0.6859;4;y;21;31;f;1;109
Shanghai;Harbin;Shanghai;0.9578;4;y;21;31;f;1;110
Bangkok;Tokio;Tokio;1.4377;4;y;21;31;f;1;111
Chongqing;Seoul;Seoul;1.4135;4;y;21;31;f;1;112
Montreal;Tianjin;Montreal;0.8691;4;y;21;31;f;1;113
Wuhan;Chongqing;Wuhan;1.0775;4;y;21;31;f;1;114
Santiago;Durban;Santiago;1.3816;4;y;21;31;f;1;115
Ankara;Rangun;Ankara;1.2617;4;y;21;31;f;1;116
Seoul;Kano;Seoul;1.2461;4;y;21;31;f;1;117
Chongqing;Rangun;Rangun;0.8454;4;y;21;31;f;1;118
Santiago;Seoul;Santiago;0.7656;4;y;21;31;f;1;119
Tokio;Harbin;Tokio;1.1576;4;y;21;31;f;1;120
Ankara;Busan;Ankara;4.5574;4;y;21;31;f;1;121
Chongqing;Tianjin;Tianjin;0.7333;4;y;21;31;f;1;122
Bangkok;Ibadan;Bangkok;1.5977;4;y;21;31;f;1;123
Seoul;Wuhan;Seoul;1.0218;4;y;21;31;f;1;124
Tokio;Santiago;Tokio;1.1978;4;y;21;31;f;1;125
Busan;London;London;0.7099;4;y;21;31;f;1;126
Chongqing;Santiago;Santiago;0.9496;4;y;21;31;f;1;127
Seoul;Montreal;Montreal;1.3721;4;y;21;31;f;1;128
Harbin;Chongqing;Harbin;1.3895;4;y;21;31;f;1;129
Harbin;Montreal;Montreal;0.8460;4;y;21;31;f;1;130
Shanghai;Rangun;Shanghai;0.7414;4;y;21;31;f;1;131
Ibadan;Seoul;Seoul;0.8698;4;y;21;31;f;1;132
Tianjin;Busan;Busan;3.0542;4;y;21;31;f;1;133
Montreal;Durban;Montreal;1.1093;4;y;21;31;f;1;134
Wuhan;Shanghai;Shanghai;0.7820;4;y;21;31;f;1;135
Rangun;Santiago;Santiago;0.8932;4;y;21;31;f;1;136
Wuhan;Seoul;Seoul;1.8362;8;y;24;11;m;1;1
Shanghai;Tokio;Tokio;1.9781;8;y;24;11;m;1;2
Harbin;Tianjin;Harbin;2.5283;8;y;24;11;m;1;3
Seoul;Shanghai;Shanghai;2.4075;8;y;24;11;m;1;4
Ibadan;Wuhan;Ibadan;1.8274;8;y;24;11;m;1;5
Bangkok;Wuhan;Bangkok;1.2180;8;y;24;11;m;1;6
Wuhan;Tianjin;Tianjin;2.7217;8;y;24;11;m;1;7
Montreal;Busan;Montreal;1.2337;8;y;24;11;m;1;8
Ankara;Montreal;Ankara;1.9958;8;y;24;11;m;1;9
Tokio;Wuhan;Tokio;1.2226;8;y;24;11;m;1;10
Chongqing;Ankara;Ankara;1.9771;8;y;24;11;m;1;11
Tianjin;Santiago;Santiago;1.2878;8;y;24;11;m;1;12
Montreal;London;Montreal;2.8795;8;y;24;11;m;1;13
Chongqing;Busan;Busan;2.7754;8;y;24;11;m;1;14
Wuhan;Kano;Kano;2.0657;8;y;24;11;m;1;15
London;Santiago;London;1.5298;8;y;24;11;m;1;16
Harbin;Ankara;Ankara;2.5450;8;y;24;11;m;1;17
Durban;Rangun;Rangun;2.4678;8;y;24;11;m;1;18
London;Chongqing;London;1.8477;8;y;24;11;m;1;19
Rangun;Ankara;Ankara;1.7559;8;y;24;11;m;1;20
Rangun;Tokio;Tokio;1.1774;8;y;24;11;m;1;21
Busan;Tianjin;Busan;3.1722;8;y;24;11;m;1;22
Kano;Durban;Durban;3.3886;8;y;24;11;m;1;23
Kano;Busan;Busan;2.0923;8;y;24;11;m;1;24
Tokio;Seoul;Tokio;3.7451;8;y;24;11;m;1;25
London;Ibadan;London;1.1734;8;y;24;11;m;1;26
Shanghai;Montreal;Shanghai;1.5036;8;y;24;11;m;1;27
Bangkok;Seoul;Seoul;2.2053;8;y;24;11;m;1;28
Kano;Seoul;Seoul;1.0915;8;y;24;11;m;1;29
Bangkok;Montreal;Montreal;3.3819;8;y;24;11;m;1;30
Chongqing;Harbin;Harbin;1.4267;8;y;24;11;m;1;31
Tianjin;London;London;0.8918;8;y;24;11;m;1;32
Ankara;Tianjin;Ankara;1.0553;8;y;24;11;m;1;33
Kano;London;London;0.7941;8;y;24;11;m;1;34
Montreal;Ibadan;Montreal;1.6032;8;y;24;11;m;1;35
Wuhan;London;London;1.6631;8;y;24;11;m;1;36
Tianjin;Rangun;Rangun;2.0176;8;y;24;11;m;1;37
Seoul;Rangun;Seoul;0.8337;8;y;24;11;m;1;38
Santiago;Harbin;Santiago;1.1157;8;y;24;11;m;1;39
Durban;London;London;1.0134;8;y;24;11;m;1;40
Montreal;Seoul;Montreal;0.9847;8;y;24;11;m;1;41
Kano;Montreal;Montreal;1.2798;8;y;24;11;m;1;42
Seoul;Santiago;Seoul;1.2926;8;y;24;11;m;1;43
Rangun;Ibadan;Rangun;1.3923;8;y;24;11;m;1;44
Durban;Busan;Durban;1.7267;8;y;24;11;m;1;45
Chongqing;Tokio;Tokio;1.2531;8;y;24;11;m;1;46
Bangkok;Tianjin;Bangkok;1.0482;8;y;24;11;m;1;47
Bangkok;Ankara;Bangkok;0.8323;8;y;24;11;m;1;48
Santiago;Rangun;Santiago;1.2166;8;y;24;11;m;1;49
Tianjin;Chongqing;Chongqing;2.3720;8;y;24;11;m;1;50
Harbin;Tokio;Tokio;1.3128;8;y;24;11;m;1;51
Bangkok;London;London;2.7262;8;y;24;11;m;1;52
Durban;Montreal;Montreal;1.5969;8;y;24;11;m;1;53
Chongqing;Bangkok;Bangkok;2.2864;8;y;24;11;m;1;54
Seoul;Harbin;Seoul;1.3817;8;y;24;11;m;1;55
Ankara;Seoul;Seoul;0.9181;8;y;24;11;m;1;56
Santiago;Tokio;Tokio;0.8961;8;y;24;11;m;1;57
London;Busan;London;0.9733;8;y;24;11;m;1;58
Busan;Ankara;Ankara;0.7171;8;y;24;11;m;1;59
Busan;Bangkok;Bangkok;1.1550;8;y;24;11;m;1;60
Kano;Rangun;Kano;1.3818;8;y;24;11;m;1;61
Seoul;Chongqing;Seoul;0.8900;8;y;24;11;m;1;62
Tokio;Kano;Tokio;1.8760;8;y;24;11;m;1;63
Santiago;Shanghai;Santiago;0.9735;8;y;24;11;m;1;64
Shanghai;Kano;Shanghai;0.8557;8;y;24;11;m;1;65
Ibadan;Ankara;Ankara;0.9817;8;y;24;11;m;1;66
Busan;Ibadan;Busan;3.0359;8;y;24;11;m;1;67
Busan;Tokio;Tokio;0.7354;8;y;24;11;m;1;68
Harbin;Durban;Harbin;3.2377;8;y;24;11;m;1;69
Seoul;Ibadan;Seoul;0.7892;8;y;24;11;m;1;70
Tianjin;Kano;Kano;1.3002;8;y;24;11;m;1;71
Ankara;London;Ankara;2.2036;8;y;24;11;m;1;72
Shanghai;Tianjin;Shanghai;1.4320;8;y;24;11;m;1;73
Bangkok;Durban;Bangkok;1.1536;8;y;24;11;m;1;74
Tokio;Ankara;Tokio;0.8430;8;y;24;11;m;1;75
Montreal;Harbin;Montreal;1.2242;8;y;24;11;m;1;76
Rangun;Bangkok;Bangkok;1.1007;8;y;24;11;m;1;77
Durban;Santiago;Santiago;1.2609;8;y;24;11;m;1;78
Harbin;Wuhan;Harbin;1.4530;8;y;24;11;m;1;79
Shanghai;Bangkok;Bangkok;1.4665;8;y;24;11;m;1;80
Ankara;Kano;Ankara;1.0653;8;y;24;11;m;1;81
Rangun;Chongqing;Chongqing;2.1722;8;y;24;11;m;1;82
Harbin;Kano;Kano;1.1943;8;y;24;11;m;1;83
Rangun;Harbin;Harbin;0.9677;8;y;24;11;m;1;84
Santiago;Chongqing;Santiago;0.8731;8;y;24;11;m;1;85
Tokio;Durban;Tokio;0.8103;8;y;24;11;m;1;86
Ankara;Durban;Ankara;1.8340;8;y;24;11;m;1;87
Montreal;Santiago;Montreal;0.9441;8;y;24;11;m;1;88
Chongqing;Ibadan;Chongqing;1.0026;8;y;24;11;m;1;89
Rangun;Busan;Rangun;1.0674;8;y;24;11;m;1;90
London;Harbin;London;0.6961;8;y;24;11;m;1;91
Santiago;Bangkok;Bangkok;1.0070;8;y;24;11;m;1;92
Tokio;Tianjin;Tokio;0.7401;8;y;24;11;m;1;93
Shanghai;Durban;Shanghai;1.2350;8;y;24;11;m;1;94
Durban;Chongqing;Durban;1.3626;8;y;24;11;m;1;95
Ankara;Santiago;Ankara;0.7852;8;y;24;11;m;1;96
Kano;Santiago;Santiago;0.8657;8;y;24;11;m;1;97
Shanghai;Wuhan;Shanghai;0.9746;8;y;24;11;m;1;98
Montreal;Chongqing;Montreal;2.4577;8;y;24;11;m;1;99
Wuhan;Durban;Wuhan;2.6128;8;y;24;11;m;1;100
Busan;Shanghai;Shanghai;1.1440;8;y;24;11;m;1;101
London;Rangun;London;0.6214;8;y;24;11;m;1;102
Tianjin;Montreal;Montreal;1.0336;8;y;24;11;m;1;103
Ibadan;Harbin;Ibadan;1.1637;8;y;24;11;m;1;104
Durban;Seoul;Seoul;0.9139;8;y;24;11;m;1;105
Bangkok;Kano;Bangkok;1.0771;8;y;24;11;m;1;106
Busan;Wuhan;Busan;1.0924;8;y;24;11;m;1;107
Tianjin;Seoul;Seoul;1.0776;8;y;24;11;m;1;108
Ibadan;Bangkok;Bangkok;0.9324;8;y;24;11;m;1;109
Busan;Harbin;Busan;1.1506;8;y;24;11;m;1;110
Harbin;Bangkok;Bangkok;0.7391;8;y;24;11;m;1;111
Seoul;London;Seoul;0.8781;8;y;24;11;m;1;112
Durban;Ibadan;Durban;1.7360;8;y;24;11;m;1;113
Santiago;Ibadan;Santiago;1.1500;8;y;24;11;m;1;114
Tokio;Bangkok;Bangkok;1.0036;8;y;24;11;m;1;115
Rangun;Shanghai;Shanghai;2.8248;8;y;24;11;m;1;116
Montreal;Rangun;Montreal;1.0356;8;y;24;11;m;1;117
Kano;Chongqing;Kano;1.7103;8;y;24;11;m;1;118
London;Shanghai;Shanghai;1.2244;8;y;24;11;m;1;119
London;Tokio;Tokio;1.4965;8;y;24;11;m;1;120
Wuhan;Santiago;Santiago;1.1415;8;y;24;11;m;1;121
Seoul;Busan;Seoul;0.8008;8;y;24;11;m;1;122
Chongqing;Wuhan;Wuhan;1.5852;8;y;24;11;m;1;123
Harbin;Shanghai;Shanghai;1.5806;8;y;24;11;m;1;124
Ibadan;Shanghai;Shanghai;0.8861;8;y;24;11;m;1;125
Ibadan;Tokio;Tokio;0.9143;8;y;24;11;m;1;126
Tokio;Montreal;Tokio;0.7202;8;y;24;11;m;1;127
Chongqing;Shanghai;Shanghai;1.2727;8;y;24;11;m;1;128
Ankara;Wuhan;Ankara;1.2842;8;y;24;11;m;1;129
Santiago;Busan;Santiago;2.0243;8;y;24;11;m;1;130
Shanghai;Ankara;Shanghai;2.1459;8;y;24;11;m;1;131
Tianjin;Durban;Durban;0.9752;8;y;24;11;m;1;132
Ibadan;Tianjin;Tianjin;1.4434;8;y;24;11;m;1;133
Wuhan;Rangun;Rangun;1.4776;8;y;24;11;m;1;134
Ibadan;Kano;Kano;1.0714;8;y;24;11;m;1;135
Wuhan;Montreal;Montreal;1.0302;8;y;24;11;m;1;136
Rangun;Kano;Rangun;3.8723;8;y;22;26;m;0;1
Bangkok;Santiago;Santiago;14.3461;8;y;22;26;m;0;2
Bangkok;Busan;Bangkok;2.7629;8;y;22;26;m;0;3
Seoul;Durban;Seoul;1.4672;8;y;22;26;m;0;4
Shanghai;Rangun;Shanghai;2.3263;8;y;22;26;m;0;5
Seoul;Bangkok;Seoul;4.2509;8;y;22;26;m;0;6
London;Ankara;London;2.3010;8;y;22;26;m;0;7
Ankara;Chongqing;Chongqing;1.9611;8;y;22;26;m;0;8
Tokio;Ibadan;Tokio;1.4593;8;y;22;26;m;0;9
Tianjin;Shanghai;Shanghai;2.3965;8;y;22;26;m;0;10
Tokio;Harbin;Tokio;1.2294;8;y;22;26;m;0;11
Montreal;Tianjin;Tianjin;3.6788;8;y;22;26;m;0;12
Ibadan;Busan;Ibadan;1.9121;8;y;22;26;m;0;13
Tokio;Chongqing;Chongqing;1.7844;8;y;22;26;m;0;14
Chongqing;Montreal;Chongqing;3.9673;8;y;22;26;m;0;15
Shanghai;Busan;Shanghai;3.2670;8;y;22;26;m;0;16
Wuhan;Ankara;Wuhan;1.2910;8;y;22;26;m;0;17
Busan;Santiago;Santiago;1.9049;8;y;22;26;m;0;18
Harbin;Busan;Harbin;4.0167;8;y;22;26;m;0;19
Durban;Shanghai;Shanghai;2.6000;8;y;22;26;m;0;20
Tianjin;Tokio;Tokio;1.7386;8;y;22;26;m;0;21
Shanghai;London;Shanghai;3.0953;8;y;22;26;m;0;22
Tianjin;Harbin;Tianjin;5.0532;8;y;22;26;m;0;23
Durban;Kano;Durban;3.2618;8;y;22;26;m;0;24
Rangun;Durban;Rangun;2.0256;8;y;22;26;m;0;25
Ankara;Bangkok;Bangkok;1.0786;8;y;22;26;m;0;26
Chongqing;Kano;Chongqing;1.3153;8;y;22;26;m;0;27
Harbin;Seoul;Seoul;1.5292;8;y;22;26;m;0;28
Chongqing;Seoul;Seoul;1.1062;8;y;22;26;m;0;29
Montreal;Shanghai;Shanghai;2.8469;8;y;22;26;m;0;30
Santiago;Montreal;Santiago;1.3335;8;y;22;26;m;0;31
London;Seoul;London;4.2523;8;y;22;26;m;0;32
Tokio;Shanghai;Shanghai;2.5573;8;y;22;26;m;0;33
Bangkok;Harbin;Bangkok;1.8127;8;y;22;26;m;0;34
Ankara;Busan;Busan;1.5362;8;y;22;26;m;0;35
Wuhan;Busan;Busan;1.9888;8;y;22;26;m;0;36
Busan;Rangun;Busan;1.6364;8;y;22;26;m;0;37
Harbin;Chongqing;Chongqing;1.3613;8;y;22;26;m;0;38
Kano;Tianjin;Tianjin;1.4402;8;y;22;26;m;0;39
Ibadan;Seoul;Seoul;1.3548;8;y;22;26;m;0;40
Ankara;Shanghai;Shanghai;1.0774;8;y;22;26;m;0;41
London;Montreal;London;1.1220;8;y;22;26;m;0;42
Durban;Ankara;Durban;2.2981;8;y;22;26;m;0;43
Kano;Harbin;Kano;5.4010;8;y;22;26;m;0;44
Ankara;Rangun;Rangun;2.7122;8;y;22;26;m;0;45
Ibadan;London;London;1.5043;8;y;22;26;m;0;46
Rangun;London;London;0.8986;8;y;22;26;m;0;47
Bangkok;Rangun;Bangkok;1.1647;8;y;22;26;m;0;48
Bangkok;Tokio;Bangkok;5.8902;8;y;22;26;m;0;49
Tianjin;Busan;Busan;1.4737;8;y;22;26;m;0;50
Shanghai;Santiago;Shanghai;1.5266;8;y;22;26;m;0;51
Santiago;Durban;Santiago;1.9434;8;y;22;26;m;0;52
Santiago;Ankara;Santiago;1.3175;8;y;22;26;m;0;53
Santiago;Seoul;Santiago;2.3772;8;y;22;26;m;0;54
Tianjin;Ibadan;Ibadan;2.6248;8;y;22;26;m;0;55
Shanghai;Ibadan;Shanghai;1.3672;8;y;22;26;m;0;56
London;Kano;London;0.5466;8;y;22;26;m;0;57
Busan;London;London;0.7441;8;y;22;26;m;0;58
Rangun;Santiago;Santiago;1.6603;8;y;22;26;m;0;59
Ankara;Harbin;Harbin;2.1200;8;y;22;26;m;0;60
London;Tianjin;London;1.0300;8;y;22;26;m;0;61
Chongqing;Santiago;Santiago;3.5029;8;y;22;26;m;0;62
Wuhan;Tokio;Tokio;1.3657;8;y;22;26;m;0;63
Ankara;Ibadan;Ibadan;1.8742;8;y;22;26;m;0;64
Rangun;Montreal;Rangun;2.7463;8;y;22;26;m;0;65
Durban;Tianjin;Durban;2.2217;8;y;22;26;m;0;66
Shanghai;Chongqing;Shanghai;2.1678;8;y;22;26;m;0;67
Seoul;Ankara;Seoul;1.2006;8;y;22;26;m;0;68
Busan;Chongqing;Chongqing;1.1740;8;y;22;26;m;0;69
Busan;Kano;Busan;1.2171;8;y;22;26;m;0;70
Wuhan;Shanghai;Shanghai;0.9860;8;y;22;26;m;0;71
Seoul;Montreal;Seoul;1.4863;8;y;22;26;m;0;72
Seoul;Tianjin;Seoul;1.0944;8;y;22;26;m;0;73
Montreal;Kano;Kano;1.8594;8;y;22;26;m;0;74
Tokio;Busan;Tokio;1.3706;8;y;22;26;m;0;75
Santiago;Wuhan;Santiago;1.0192;8;y;22;26;m;0;76
Kano;Ibadan;Kano;1.5406;8;y;22;26;m;0;77
Wuhan;Ibadan;Ibadan;2.9921;8;y;22;26;m;0;78
Montreal;Tokio;Tokio;1.0261;8;y;22;26;m;0;79
Montreal;Wuhan;Wuhan;1.9941;8;y;22;26;m;0;80
Montreal;Ankara;Montreal;2.2856;8;y;22;26;m;0;81
London;Durban;London;1.0592;8;y;22;26;m;0;82
Montreal;Durban;Montreal;1.4283;8;y;22;26;m;0;83
Tokio;Santiago;Tokio;3.4454;8;y;22;26;m;0;84
Shanghai;Seoul;Shanghai;1.7216;8;y;22;26;m;0;85
Busan;Durban;Busan;2.7971;8;y;22;26;m;0;86
Montreal;Bangkok;Bangkok;1.5655;8;y;22;26;m;0;87
Kano;Shanghai;Shanghai;0.9692;8;y;22;26;m;0;88
Wuhan;Harbin;Wuhan;1.3772;8;y;22;26;m;0;89
Bangkok;Chongqing;Bangkok;4.0736;8;y;22;26;m;0;90
London;Wuhan;London;2.5225;8;y;22;26;m;0;91
Seoul;Wuhan;Seoul;2.1604;8;y;22;26;m;0;92
Chongqing;Durban;Chongqing;1.5530;8;y;22;26;m;0;93
Chongqing;London;Chongqing;1.5321;8;y;22;26;m;0;94
Harbin;Rangun;Harbin;2.1296;8;y;22;26;m;0;95
Tianjin;Ankara;Tianjin;1.3041;8;y;22;26;m;0;96
Durban;Bangkok;Bangkok;1.7856;8;y;22;26;m;0;97
Seoul;Kano;Seoul;1.0544;8;y;22;26;m;0;98
Kano;Tokio;Tokio;0.8626;8;y;22;26;m;0;99
Tokio;London;London;3.9326;8;y;22;26;m;0;100
Durban;Wuhan;Durban;2.4457;8;y;22;26;m;0;101
Rangun;Wuhan;Rangun;1.5108;8;y;22;26;m;0;102
Kano;Ankara;Kano;1.3857;8;y;22;26;m;0;103
Chongqing;Tianjin;Chongqing;1.0460;8;y;22;26;m;0;104
Wuhan;Bangkok;Bangkok;1.4798;8;y;22;26;m;0;105
Kano;Wuhan;Kano;1.9121;8;y;22;26;m;0;106
Busan;Montreal;Montreal;1.6153;8;y;22;26;m;0;107
Santiago;Kano;Santiago;1.3118;8;y;22;26;m;0;108
Ibadan;Montreal;Montreal;1.1879;8;y;22;26;m;0;109
London;Bangkok;Bangkok;2.7167;8;y;22;26;m;0;110
Harbin;Santiago;Santiago;2.0596;8;y;22;26;m;0;111
Santiago;London;London;4.5584;8;y;22;26;m;0;112
Tianjin;Wuhan;Tianjin;1.9923;8;y;22;26;m;0;113
Santiago;Tianjin;Santiago;1.2270;8;y;22;26;m;0;114
Kano;Bangkok;Bangkok;1.3961;8;y;22;26;m;0;115
Harbin;Montreal;Montreal;1.5300;8;y;22;26;m;0;116
Shanghai;Harbin;Shanghai;1.1090;8;y;22;26;m;0;117
Durban;Harbin;Durban;1.1290;8;y;22;26;m;0;118
Rangun;Seoul;Seoul;1.3323;8;y;22;26;m;0;119
Bangkok;Ibadan;Bangkok;0.9901;8;y;22;26;m;0;120
Harbin;Ibadan;Ibadan;1.7464;8;y;22;26;m;0;121
Ibadan;Santiago;Santiago;1.3780;8;y;22;26;m;0;122
Tokio;Rangun;Tokio;0.9148;8;y;22;26;m;0;123
Durban;Tokio;Tokio;1.0355;8;y;22;26;m;0;124
Ibadan;Durban;Ibadan;2.4127;8;y;22;26;m;0;125
Bangkok;Shanghai;Shanghai;2.8620;8;y;22;26;m;0;126
Ibadan;Chongqing;Chongqing;1.3601;8;y;22;26;m;0;127
Ibadan;Rangun;Rangun;2.1746;8;y;22;26;m;0;128
Chongqing;Rangun;Chongqing;1.4168;8;y;22;26;m;0;129
Seoul;Tokio;Tokio;2.8037;8;y;22;26;m;0;130
Harbin;London;London;1.1119;8;y;22;26;m;0;131
Ankara;Tokio;Tokio;1.7748;8;y;22;26;m;0;132
Wuhan;Chongqing;Chongqing;1.3816;8;y;22;26;m;0;133
Busan;Seoul;Seoul;0.7701;8;y;22;26;m;0;134
Tianjin;Bangkok;Bangkok;0.7957;8;y;22;26;m;0;135
Rangun;Tianjin;Rangun;1.3631;8;y;22;26;m;0;136
Chongqing;Ankara;Ankara;2.3793;6;y;23;10;m;1;1
Tokio;Durban;Tokio;1.4240;6;y;23;10;m;1;2
London;Santiago;London;3.7377;6;y;23;10;m;1;3
Ankara;Montreal;Montreal;1.6755;6;y;23;10;m;1;4
Busan;Ankara;Ankara;1.0317;6;y;23;10;m;1;5
Seoul;Ibadan;Seoul;0.9324;6;y;23;10;m;1;6
Rangun;Chongqing;Chongqing;3.5129;6;y;23;10;m;1;7
Wuhan;Seoul;Seoul;0.9441;6;y;23;10;m;1;8
Montreal;London;London;3.9316;6;y;23;10;m;1;9
Durban;Seoul;Seoul;1.4477;6;y;23;10;m;1;10
Wuhan;Montreal;Montreal;1.3630;6;y;23;10;m;1;11
Kano;Durban;Durban;4.9903;6;y;23;10;m;1;12
Chongqing;Bangkok;Bangkok;1.2490;6;y;23;10;m;1;13
Kano;Montreal;Montreal;1.1107;6;y;23;10;m;1;14
London;Harbin;London;1.1406;6;y;23;10;m;1;15
Tokio;Kano;Tokio;1.0308;6;y;23;10;m;1;16
Busan;Harbin;Busan;3.6483;6;y;23;10;m;1;17
Tianjin;Durban;Tianjin;1.8725;6;y;23;10;m;1;18
Busan;Bangkok;Bangkok;0.7494;6;y;23;10;m;1;19
Tokio;Bangkok;Tokio;10.2829;6;y;23;10;m;1;20
Harbin;Kano;Kano;1.2250;6;y;23;10;m;1;21
Tianjin;Kano;Tianjin;1.0059;6;y;23;10;m;1;22
Ankara;Durban;Ankara;0.9578;6;y;23;10;m;1;23
Chongqing;Wuhan;Chongqing;1.6955;6;y;23;10;m;1;24
Tianjin;Santiago;Santiago;0.9486;6;y;23;10;m;1;25
Durban;London;London;0.9798;6;y;23;10;m;1;26
Harbin;Shanghai;Shanghai;1.0215;6;y;23;10;m;1;27
Kano;Rangun;Rangun;5.8516;6;y;23;10;m;1;28
Durban;Ibadan;Ibadan;1.8997;6;y;23;10;m;1;29
Rangun;Tokio;Tokio;0.8856;6;y;23;10;m;1;30
London;Tokio;London;0.8414;6;y;23;10;m;1;31
Bangkok;Kano;Bangkok;2.3711;6;y;23;10;m;1;32
Santiago;Busan;Santiago;0.9945;6;y;23;10;m;1;33
Ankara;Tianjin;Ankara;1.3550;6;y;23;10;m;1;34
Seoul;Chongqing;Seoul;1.8262;6;y;23;10;m;1;35
Busan;Tokio;Tokio;0.7811;6;y;23;10;m;1;36
Busan;Wuhan;Wuhan;3.0785;6;y;23;10;m;1;37
Ankara;Seoul;Seoul;3.4186;6;y;23;10;m;1;38
Montreal;Ibadan;Montreal;0.8934;6;y;23;10;m;1;39
Ibadan;Wuhan;Ibadan;0.9434;6;y;23;10;m;1;40
Harbin;Ankara;Ankara;0.9228;6;y;23;10;m;1;41
London;Ibadan;London;0.9810;6;y;23;10;m;1;42
Harbin;Wuhan;Wuhan;1.4573;6;y;23;10;m;1;43
Tokio;Montreal;Tokio;1.7744;6;y;23;10;m;1;44
Wuhan;Kano;Kano;1.4178;6;y;23;10;m;1;45
Kano;Seoul;Seoul;0.9303;6;y;23;10;m;1;46
Seoul;London;Seoul;2.6878;6;y;23;10;m;1;47
Montreal;Seoul;Seoul;1.0815;6;y;23;10;m;1;48
Busan;Shanghai;Shanghai;0.9121;6;y;23;10;m;1;49
Durban;Montreal;Montreal;0.9833;6;y;23;10;m;1;50
Durban;Chongqing;Chongqing;4.3307;6;y;23;10;m;1;51
Tianjin;Montreal;Montreal;2.1100;6;y;23;10;m;1;52
Shanghai;Kano;Shanghai;1.7070;6;y;23;10;m;1;53
Santiago;Tokio;Tokio;1.5502;6;y;23;10;m;1;54
Tianjin;Chongqing;Chongqing;3.6585;6;y;23;10;m;1;55
Kano;Santiago;Santiago;0.9073;6;y;23;10;m;1;56
Shanghai;Ankara;Shanghai;1.1938;6;y;23;10;m;1;57
Ibadan;Kano;Ibadan;1.1480;6;y;23;10;m;1;58
Busan;Ibadan;Ibadan;1.0778;6;y;23;10;m;1;59
London;Busan;London;1.6487;6;y;23;10;m;1;60
Montreal;Rangun;Montreal;2.0702;6;y;23;10;m;1;61
Ankara;London;London;1.7579;6;y;23;10;m;1;62
Seoul;Santiago;Seoul;1.0675;6;y;23;10;m;1;63
Seoul;Shanghai;Shanghai;3.9224;6;y;23;10;m;1;64
Bangkok;Seoul;Bangkok;5.9487;6;y;23;10;m;1;65
Shanghai;Montreal;Shanghai;1.2626;6;y;23;10;m;1;66
Tokio;Ankara;Tokio;1.4446;6;y;23;10;m;1;67
Kano;Busan;Busan;1.8785;6;y;23;10;m;1;68
Wuhan;Santiago;Santiago;1.6454;6;y;23;10;m;1;69
Rangun;Busan;Busan;1.5346;6;y;23;10;m;1;70
Rangun;Ibadan;Ibadan;0.9395;6;y;23;10;m;1;71
Shanghai;Bangkok;Shanghai;2.9704;6;y;23;10;m;1;72
Bangkok;Durban;Bangkok;0.9202;6;y;23;10;m;1;73
Tianjin;Seoul;Seoul;1.2662;6;y;23;10;m;1;74
Ibadan;Ankara;Ankara;1.3191;6;y;23;10;m;1;75
Shanghai;Wuhan;Shanghai;0.9603;6;y;23;10;m;1;76
Rangun;Bangkok;Bangkok;0.9885;6;y;23;10;m;1;77
Wuhan;Durban;Durban;1.8580;6;y;23;10;m;1;78
Harbin;Durban;Durban;1.2773;6;y;23;10;m;1;79
Ibadan;Tokio;Tokio;1.1016;6;y;23;10;m;1;80
Busan;Tianjin;Tianjin;1.1789;6;y;23;10;m;1;81
Harbin;Tokio;Tokio;0.9128;6;y;23;10;m;1;82
London;Rangun;London;1.1211;6;y;23;10;m;1;83
Bangkok;Tianjin;Bangkok;1.2111;6;y;23;10;m;1;84
Shanghai;Durban;Shanghai;0.8272;6;y;23;10;m;1;85
Ankara;Santiago;Santiago;3.3384;6;y;23;10;m;1;86
Ankara;Wuhan;Ankara;3.0332;6;y;23;10;m;1;87
Montreal;Harbin;Montreal;1.0613;6;y;23;10;m;1;88
Kano;London;London;0.8332;6;y;23;10;m;1;89
Ibadan;Harbin;Ibadan;1.2995;6;y;23;10;m;1;90
Santiago;Shanghai;Shanghai;2.1930;6;y;23;10;m;1;91
Santiago;Ibadan;Santiago;1.5124;6;y;23;10;m;1;92
Shanghai;Tianjin;Shanghai;2.5611;6;y;23;10;m;1;93
Rangun;Harbin;Rangun;1.5480;6;y;23;10;m;1;94
Chongqing;Busan;Chongqing;1.1295;6;y;23;10;m;1;95
Tokio;Wuhan;Tokio;0.7699;6;y;23;10;m;1;96
Tokio;Seoul;Tokio;4.3073;6;y;23;10;m;1;97
Chongqing;Ibadan;Chongqing;2.1947;6;y;23;10;m;1;98
Durban;Busan;Busan;2.4613;6;y;23;10;m;1;99
Rangun;Shanghai;Shanghai;0.9394;6;y;23;10;m;1;100
Rangun;Ankara;Ankara;1.1152;6;y;23;10;m;1;101
Durban;Rangun;Rangun;1.0209;6;y;23;10;m;1;102
Chongqing;Harbin;Chongqing;1.6720;6;y;23;10;m;1;103
Ibadan;Bangkok;Bangkok;1.0176;6;y;23;10;m;1;104
London;Chongqing;London;0.8939;6;y;23;10;m;1;105
Montreal;Chongqing;Montreal;0.8810;6;y;23;10;m;1;106
Bangkok;Ankara;Bangkok;1.9185;6;y;23;10;m;1;107
Wuhan;Rangun;Rangun;3.3882;6;y;23;10;m;1;108
Ankara;Kano;Ankara;0.9260;6;y;23;10;m;1;109
Tianjin;London;London;0.9633;6;y;23;10;m;1;110
Shanghai;Tokio;Shanghai;6.1442;6;y;23;10;m;1;111
Wuhan;Tianjin;Wuhan;1.2546;6;y;23;10;m;1;112
Seoul;Rangun;Seoul;1.0126;6;y;23;10;m;1;113
Montreal;Santiago;Santiago;1.5352;6;y;23;10;m;1;114
Harbin;Bangkok;Bangkok;0.9565;6;y;23;10;m;1;115
Bangkok;London;Bangkok;3.3171;6;y;23;10;m;1;116
Kano;Chongqing;Chongqing;2.4726;6;y;23;10;m;1;117
Ibadan;Tianjin;Ibadan;1.5176;6;y;23;10;m;1;118
Montreal;Busan;Montreal;0.9132;6;y;23;10;m;1;119
Wuhan;London;London;0.6758;6;y;23;10;m;1;120
Chongqing;Shanghai;Shanghai;1.0302;6;y;23;10;m;1;121
Ibadan;Shanghai;Shanghai;0.8807;6;y;23;10;m;1;122
Santiago;Bangkok;Bangkok;3.4688;6;y;23;10;m;1;123
Santiago;Chongqing;Santiago;1.9380;6;y;23;10;m;1;124
Durban;Santiago;Santiago;0.8499;6;y;23;10;m;1;125
Tianjin;Rangun;Tianjin;0.9670;6;y;23;10;m;1;126
Tokio;Tianjin;Tokio;1.2439;6;y;23;10;m;1;127
Bangkok;Wuhan;Bangkok;0.9043;6;y;23;10;m;1;128
Santiago;Harbin;Santiago;0.9756;6;y;23;10;m;1;129
Chongqing;Tokio;Tokio;1.0083;6;y;23;10;m;1;130
Seoul;Harbin;Seoul;0.8211;6;y;23;10;m;1;131
Santiago;Rangun;Santiago;0.8284;6;y;23;10;m;1;132
Seoul;Busan;Seoul;0.7943;6;y;23;10;m;1;133
Bangkok;Montreal;Bangkok;1.3321;6;y;23;10;m;1;134
Harbin;Tianjin;Tianjin;1.1194;6;y;23;10;m;1;135
London;Shanghai;Shanghai;1.2014;6;y;23;10;m;1;136
Tianjin;Tokio;Tokio;3.9478;4;y;19;30;f;1;1
Ibadan;Montreal;Montreal;1.6044;4;y;19;30;f;1;2
Chongqing;Seoul;Seoul;0.9006;4;y;19;30;f;1;3
Harbin;Seoul;Seoul;0.8455;4;y;19;30;f;1;4
Santiago;Wuhan;Santiago;0.9894;4;y;19;30;f;1;5
Wuhan;Ibadan;Ibadan;0.7661;4;y;19;30;f;1;6
Wuhan;Busan;Busan;1.5100;4;y;19;30;f;1;7
Tokio;Ibadan;Tokio;1.1096;4;y;19;30;f;1;8
Bangkok;Shanghai;Bangkok;4.1174;4;y;19;30;f;1;9
Wuhan;Shanghai;Shanghai;0.8774;4;y;19;30;f;1;10
Santiago;Ankara;Santiago;1.0614;4;y;19;30;f;1;11
Montreal;Shanghai;Shanghai;0.6786;4;y;19;30;f;1;12
Santiago;Durban;Santiago;0.6938;4;y;19;30;f;1;13
Ankara;Busan;Busan;1.3658;4;y;19;30;f;1;14
Santiago;Tianjin;Santiago;0.7334;4;y;19;30;f;1;15
Wuhan;Ankara;Wuhan;1.0373;4;y;19;30;f;1;16
London;Durban;London;0.9411;4;y;19;30;f;1;17
Montreal;Tokio;Montreal;0.7256;4;y;19;30;f;1;18
Harbin;Busan;Busan;1.3735;4;y;19;30;f;1;19
Durban;Ankara;Durban;0.7417;4;y;19;30;f;1;20
Tokio;London;Tokio;1.7338;4;y;19;30;f;1;21
Ankara;Ibadan;Ankara;2.4458;4;y;19;30;f;1;22
Seoul;Wuhan;Seoul;0.6533;4;y;19;30;f;1;23
Shanghai;Rangun;Shanghai;0.7650;4;y;19;30;f;1;24
Rangun;Wuhan;Wuhan;1.3978;4;y;19;30;f;1;25
Kano;Ankara;Ankara;1.8453;4;y;19;30;f;1;26
Busan;Chongqing;Busan;2.3253;4;y;19;30;f;1;27
Busan;London;Busan;0.8776;4;y;19;30;f;1;28
Ibadan;Seoul;Seoul;0.9659;4;y;19;30;f;1;29
Seoul;Bangkok;Bangkok;0.7894;4;y;19;30;f;1;30
Tokio;Rangun;Tokio;0.7494;4;y;19;30;f;1;31
Busan;Montreal;Montreal;1.0215;4;y;19;30;f;1;32
Seoul;Tianjin;Seoul;0.7175;4;y;19;30;f;1;33
Busan;Durban;Durban;2.0697;4;y;19;30;f;1;34
Shanghai;Seoul;Seoul;4.8804;4;y;19;30;f;1;35
Chongqing;London;London;0.7395;4;y;19;30;f;1;36
Tianjin;Ibadan;Ibadan;1.9094;4;y;19;30;f;1;37
Durban;Kano;Kano;0.8938;4;y;19;30;f;1;38
Shanghai;Ibadan;Shanghai;0.6294;4;y;19;30;f;1;39
Tianjin;Shanghai;Shanghai;0.7090;4;y;19;30;f;1;40
Seoul;Durban;Seoul;0.5579;4;y;19;30;f;1;41
Santiago;Montreal;Montreal;1.1411;4;y;19;30;f;1;42
Ibadan;Chongqing;Ibadan;0.9974;4;y;19;30;f;1;43
Rangun;London;London;0.8934;4;y;19;30;f;1;44
Durban;Shanghai;Durban;0.6373;4;y;19;30;f;1;45
Busan;Santiago;Santiago;0.4216;4;y;19;30;f;1;46
Montreal;Ankara;Montreal;0.6773;4;y;19;30;f;1;47
Tianjin;Busan;Busan;0.8051;4;y;19;30;f;1;48
Montreal;Bangkok;Bangkok;0.7573;4;y;19;30;f;1;49
Ibadan;Santiago;Santiago;0.5416;4;y;19;30;f;1;50
Tokio;Santiago;Santiago;0.9573;4;y;19;30;f;1;51
Rangun;Montreal;Montreal;0.8771;4;y;19;30;f;1;52
Tianjin;Wuhan;Wuhan;1.0216;4;y;19;30;f;1;53
Wuhan;Chongqing;Chongqing;0.5014;4;y;19;30;f;1;54
Montreal;Wuhan;Wuhan;0.5898;4;y;19;30;f;1;55
Ankara;Chongqing;Chongqing;0.6208;4;y;19;30;f;1;56
Tokio;Chongqing;Tokio;0.5094;4;y;19;30;f;1;57
Kano;Tokio;Tokio;0.5663;4;y;19;30;f;1;58
London;Wuhan;London;0.7336;4;y;19;30;f;1;59
Ibadan;London;London;0.5014;4;y;19;30;f;1;60
Busan;Kano;Busan;0.5422;4;y;19;30;f;1;61
Harbin;London;London;0.4376;4;y;19;30;f;1;62
Seoul;Kano;Seoul;0.3740;4;y;19;30;f;1;63
London;Tianjin;Tianjin;0.5175;4;y;19;30;f;1;64
Ankara;Rangun;Rangun;0.7084;4;y;19;30;f;1;65
Busan;Seoul;Seoul;0.5100;4;y;19;30;f;1;66
Santiago;Kano;Santiago;0.8298;4;y;19;30;f;1;67
Tianjin;Harbin;Harbin;0.6151;4;y;19;30;f;1;68
Ankara;Shanghai;Shanghai;1.4890;4;y;19;30;f;1;69
Wuhan;Tokio;Tokio;0.7663;4;y;19;30;f;1;70
Harbin;Montreal;Montreal;0.5168;4;y;19;30;f;1;71
Harbin;Ibadan;Ibadan;0.7738;4;y;19;30;f;1;72
London;Seoul;Seoul;0.5009;4;y;19;30;f;1;73
Rangun;Seoul;Seoul;0.7335;4;y;19;30;f;1;74
Kano;Harbin;Kano;0.8141;4;y;19;30;f;1;75
Wuhan;Harbin;Harbin;0.7579;4;y;19;30;f;1;76
Tokio;Shanghai;Shanghai;0.8293;4;y;19;30;f;1;77
Bangkok;Santiago;Bangkok;0.8289;4;y;19;30;f;1;78
Tokio;Harbin;Tokio;0.8538;4;y;19;30;f;1;79
Durban;Tokio;Tokio;0.6690;4;y;19;30;f;1;80
Shanghai;Santiago;Santiago;0.5415;4;y;19;30;f;1;81
Seoul;Ankara;Seoul;0.9644;4;y;19;30;f;1;82
Rangun;Tianjin;Tianjin;0.6534;4;y;19;30;f;1;83
Chongqing;Kano;Kano;0.6777;4;y;19;30;f;1;84
London;Montreal;London;0.7333;4;y;19;30;f;1;85
Santiago;London;London;0.7494;4;y;19;30;f;1;86
Chongqing;Rangun;Rangun;1.1328;4;y;19;30;f;1;87
Busan;Rangun;Rangun;0.5175;4;y;19;30;f;1;88
Kano;Wuhan;Wuhan;1.1901;4;y;19;30;f;1;89
Kano;Shanghai;Shanghai;0.5976;4;y;19;30;f;1;90
Bangkok;Chongqing;Bangkok;0.9571;4;y;19;30;f;1;91
Durban;Wuhan;Wuhan;1.0778;4;y;19;30;f;1;92
Wuhan;Bangkok;Bangkok;0.6216;4;y;19;30;f;1;93
Harbin;Rangun;Rangun;1.4855;4;y;19;30;f;1;94
Bangkok;Tokio;Tokio;0.5896;4;y;19;30;f;1;95
Ibadan;Durban;Durban;0.9254;4;y;19;30;f;1;96
Durban;Bangkok;Bangkok;0.4695;4;y;19;30;f;1;97
Ankara;Bangkok;Bangkok;0.6292;4;y;19;30;f;1;98
Shanghai;London;Shanghai;1.1813;4;y;19;30;f;1;99
Chongqing;Montreal;Montreal;0.6454;4;y;19;30;f;1;100
Seoul;Montreal;Montreal;0.5011;4;y;19;30;f;1;101
Rangun;Durban;Durban;0.6054;4;y;19;30;f;1;102
Tianjin;Ankara;Ankara;2.9289;4;y;19;30;f;1;103
Ibadan;Rangun;Rangun;0.8057;4;y;19;30;f;1;104
Montreal;Durban;Durban;0.6689;4;y;19;30;f;1;105
Rangun;Kano;Kano;1.0219;4;y;19;30;f;1;106
Bangkok;Harbin;Harbin;0.8056;4;y;19;30;f;1;107
Bangkok;Rangun;Bangkok;0.5094;4;y;19;30;f;1;108
Tianjin;Bangkok;Bangkok;0.6692;4;y;19;30;f;1;109
Montreal;Kano;Montreal;0.9178;4;y;19;30;f;1;110
Chongqing;Santiago;Santiago;0.7649;4;y;19;30;f;1;111
Durban;Harbin;Harbin;0.9176;4;y;19;30;f;1;112
Seoul;Tokio;Tokio;0.5814;4;y;19;30;f;1;113
Ankara;Harbin;Ankara;0.9017;4;y;19;30;f;1;114
Ibadan;Busan;Busan;0.7018;4;y;19;30;f;1;115
Chongqing;Durban;Durban;0.7972;4;y;19;30;f;1;116
London;Bangkok;Bangkok;0.4772;4;y;19;30;f;1;117
Kano;Tianjin;Tianjin;0.8858;4;y;19;30;f;1;118
Shanghai;Chongqing;Shanghai;0.8215;4;y;19;30;f;1;119
Rangun;Santiago;Santiago;0.8930;4;y;19;30;f;1;120
Durban;Tianjin;Durban;0.9817;4;y;19;30;f;1;121
Shanghai;Harbin;Shanghai;0.8693;4;y;19;30;f;1;122
London;Ankara;London;0.8853;4;y;19;30;f;1;123
Bangkok;Busan;Bangkok;0.9417;4;y;19;30;f;1;124
Bangkok;Ibadan;Bangkok;0.6050;4;y;19;30;f;1;125
Harbin;Santiago;Santiago;0.9173;4;y;19;30;f;1;126
Tokio;Busan;Tokio;0.7658;4;y;19;30;f;1;127
Kano;Bangkok;Bangkok;0.7964;4;y;19;30;f;1;128
Ankara;Tokio;Tokio;0.6698;4;y;19;30;f;1;129
London;Kano;London;0.7180;4;y;19;30;f;1;130
Harbin;Chongqing;Harbin;0.8054;4;y;19;30;f;1;131
Montreal;Tianjin;Montreal;0.6774;4;y;19;30;f;1;132
Shanghai;Busan;Shanghai;0.8054;4;y;19;30;f;1;133
Santiago;Seoul;Seoul;0.7976;4;y;19;30;f;1;134
Kano;Ibadan;Kano;0.9020;4;y;19;30;f;1;135
Chongqing;Tianjin;Tianjin;0.8528;4;y;19;30;f;1;136
Montreal;Wuhan;Wuhan;4.1083;8;y;22;23;m;0;1
Tianjin;Ibadan;Tianjin;2.3954;8;y;22;23;m;0;2
Ibadan;Santiago;Santiago;3.5349;8;y;22;23;m;0;3
Harbin;Montreal;Montreal;4.4094;8;y;22;23;m;0;4
Tianjin;Busan;Busan;3.4769;8;y;22;23;m;0;5
Durban;Harbin;Durban;3.5152;8;y;22;23;m;0;6
Durban;Wuhan;Durban;3.0904;8;y;22;23;m;0;7
Ankara;Ibadan;Ankara;6.0032;8;y;22;23;m;0;8
Harbin;Busan;Busan;4.5507;8;y;22;23;m;0;9
Ibadan;Durban;Durban;3.3873;8;y;22;23;m;0;10
Chongqing;Seoul;Seoul;5.8349;8;y;22;23;m;0;11
Tokio;Shanghai;Shanghai;7.5306;8;y;22;23;m;0;12
Wuhan;Busan;Wuhan;6.2493;8;y;22;23;m;0;13
Kano;Ibadan;Ibadan;3.1536;8;y;22;23;m;0;14
Ibadan;Busan;Busan;2.7317;8;y;22;23;m;0;15
London;Montreal;London;11.7861;8;y;22;23;m;0;16
Ibadan;Chongqing;Chongqing;2.9420;8;y;22;23;m;0;17
Harbin;Rangun;Harbin;16.0523;8;y;22;23;m;0;18
Ankara;Tokio;Tokio;2.6453;8;y;22;23;m;0;19
Shanghai;Santiago;Shanghai;1.9239;8;y;22;23;m;0;20
Tokio;London;Tokio;1.9131;8;y;22;23;m;0;21
Seoul;Tokio;Seoul;25.7283;8;y;22;23;m;0;22
Seoul;Ankara;Seoul;1.9020;8;y;22;23;m;0;23
Durban;Tianjin;Tianjin;3.3088;8;y;22;23;m;0;24
Tianjin;Harbin;Tianjin;2.9499;8;y;22;23;m;0;25
Santiago;Kano;Santiago;20.4225;8;y;22;23;m;0;26
Kano;Shanghai;Shanghai;1.4408;8;y;22;23;m;0;27
Tokio;Busan;Tokio;11.0578;8;y;22;23;m;0;28
Ankara;Shanghai;Shanghai;1.3122;8;y;22;23;m;0;29
Montreal;Durban;Montreal;4.5963;8;y;22;23;m;0;30
Seoul;Durban;Seoul;1.7972;8;y;22;23;m;0;31
Shanghai;Rangun;Shanghai;12.7912;8;y;22;23;m;0;32
Durban;Bangkok;Bangkok;1.8602;8;y;22;23;m;0;33
Montreal;Shanghai;Shanghai;4.8711;8;y;22;23;m;0;34
Kano;Bangkok;Bangkok;1.6037;8;y;22;23;m;0;35
Wuhan;Harbin;Wuhan;6.4720;8;y;22;23;m;0;36
London;Ankara;Ankara;10.2881;8;y;22;23;m;0;37
Ankara;Chongqing;Ankara;4.4023;8;y;22;23;m;0;38
Rangun;Durban;Durban;5.5690;8;y;22;23;m;0;39
Chongqing;Montreal;Chongqing;6.0940;8;y;22;23;m;0;40
Rangun;London;London;2.2192;8;y;22;23;m;0;41
Montreal;Bangkok;Bangkok;6.3006;8;y;22;23;m;0;42
Shanghai;Busan;Shanghai;2.5561;8;y;22;23;m;0;43
Busan;Chongqing;Busan;6.2715;8;y;22;23;m;0;44
Ibadan;Montreal;Montreal;4.2817;8;y;22;23;m;0;45
Tokio;Rangun;Tokio;4.0517;8;y;22;23;m;0;46
Santiago;Montreal;Santiago;5.3680;8;y;22;23;m;0;47
Wuhan;Ankara;Wuhan;6.5082;8;y;22;23;m;0;48
Ankara;Harbin;Harbin;3.7328;8;y;22;23;m;0;49
Rangun;Seoul;Seoul;4.6454;8;y;22;23;m;0;50
Busan;Montreal;Busan;2.0325;8;y;22;23;m;0;51
Tianjin;Tokio;Tokio;2.4197;8;y;22;23;m;0;52
Santiago;Ankara;Santiago;11.4155;8;y;22;23;m;0;53
Tianjin;Bangkok;Bangkok;2.5080;8;y;22;23;m;0;54
Tokio;Chongqing;Tokio;1.3720;8;y;22;23;m;0;55
Chongqing;London;Chongqing;2.8333;8;y;22;23;m;0;56
Montreal;Tokio;Tokio;3.2151;8;y;22;23;m;0;57
Tokio;Santiago;Tokio;1.9310;8;y;22;23;m;0;58
Tianjin;Shanghai;Shanghai;7.3549;8;y;22;23;m;0;59
Wuhan;Tokio;Tokio;2.4852;8;y;22;23;m;0;60
Santiago;Wuhan;Wuhan;2.9692;8;y;22;23;m;0;61
Busan;Durban;Busan;11.3307;8;y;22;23;m;0;62
Harbin;Chongqing;Chongqing;2.4601;8;y;22;23;m;0;63
Ankara;Bangkok;Bangkok;4.6774;8;y;22;23;m;0;64
Kano;Tokio;Tokio;1.5034;8;y;22;23;m;0;65
Durban;Kano;Durban;2.3115;8;y;22;23;m;0;66
Wuhan;Ibadan;Wuhan;2.4064;8;y;22;23;m;0;67
Kano;Harbin;Harbin;2.5513;8;y;22;23;m;0;68
Ankara;Rangun;Ankara;3.3342;8;y;22;23;m;0;69
Bangkok;Tokio;Tokio;13.9841;8;y;22;23;m;0;70
Rangun;Kano;Kano;2.1106;8;y;22;23;m;0;71
Bangkok;Santiago;Bangkok;2.9793;8;y;22;23;m;0;72
Chongqing;Santiago;Santiago;3.8664;8;y;22;23;m;0;73
Ibadan;Rangun;Ibadan;3.0325;8;y;22;23;m;0;74
Montreal;Tianjin;Tianjin;12.6164;8;y;22;23;m;0;75
Rangun;Montreal;Montreal;2.7161;8;y;22;23;m;0;76
Rangun;Wuhan;Wuhan;2.9623;8;y;22;23;m;0;77
London;Bangkok;Bangkok;3.8632;8;y;22;23;m;0;78
Shanghai;Harbin;Shanghai;6.2487;8;y;22;23;m;0;79
Santiago;Seoul;Seoul;3.1865;8;y;22;23;m;0;80
Seoul;Montreal;Seoul;5.5355;8;y;22;23;m;0;81
Seoul;Wuhan;Seoul;3.6750;8;y;22;23;m;0;82
Durban;Shanghai;Shanghai;2.7365;8;y;22;23;m;0;83
Busan;Santiago;Busan;2.4166;8;y;22;23;m;0;84
Chongqing;Kano;Chongqing;4.3985;8;y;22;23;m;0;85
London;Seoul;Seoul;1.8918;8;y;22;23;m;0;86
Seoul;Tianjin;Tianjin;2.2927;8;y;22;23;m;0;87
Tianjin;Wuhan;Tianjin;2.8341;8;y;22;23;m;0;88
Santiago;London;London;3.7585;8;y;22;23;m;0;89
Bangkok;Rangun;Bangkok;10.9592;8;y;22;23;m;0;90
Seoul;Bangkok;Bangkok;6.7603;8;y;22;23;m;0;91
Ankara;Busan;Ankara;2.2434;8;y;22;23;m;0;92
Tokio;Ibadan;Tokio;2.5040;8;y;22;23;m;0;93
Rangun;Santiago;Santiago;1.4119;8;y;22;23;m;0;94
Bangkok;Harbin;Bangkok;3.1455;8;y;22;23;m;0;95
London;Wuhan;London;3.6773;8;y;22;23;m;0;96
Busan;Rangun;Busan;1.4085;8;y;22;23;m;0;97
Santiago;Tianjin;Tianjin;2.4738;8;y;22;23;m;0;98
London;Durban;London;5.3177;8;y;22;23;m;0;99
London;Kano;London;4.8419;8;y;22;23;m;0;100
Wuhan;Chongqing;Chongqing;5.0917;8;y;22;23;m;0;101
Tokio;Harbin;Tokio;1.9713;8;y;22;23;m;0;102
Harbin;London;London;4.8838;8;y;22;23;m;0;103
Montreal;Ankara;Montreal;5.0899;8;y;22;23;m;0;104
Santiago;Durban;Santiago;7.5570;8;y;22;23;m;0;105
Seoul;Kano;Seoul;1.9722;8;y;22;23;m;0;106
Busan;Seoul;Seoul;4.2846;8;y;22;23;m;0;107
Kano;Wuhan;Wuhan;2.7808;8;y;22;23;m;0;108
Chongqing;Durban;Chongqing;4.3736;8;y;22;23;m;0;109
Bangkok;Chongqing;Bangkok;5.2051;8;y;22;23;m;0;110
